time,seconds_elapsed,z,y,x
1771514211290468400,0.47146826171875,10.017000198364258,1.7839500904083252,-1.4629501104354858
1771514211300672000,0.481672119140625,9.937950134277344,1.894050121307373,-1.390950083732605
1771514211321077500,0.502077392578125,9.874950408935549,2.0719501972198486,-1.5319501161575315
1771514211341481200,0.522481201171875,10.081050872802734,1.9999500513076784,-1.7020500898361206
1771514211361885700,0.5428857421875,10.25100040435791,1.8730500936508176,-1.7119500637054443
1771514211382088700,0.563088623046875,10.13895034790039,1.88700008392334,-1.543950080871582
1771514211392088800,0.5730888671875,10.02405071258545,1.870050072669983,-1.492050051689148
1771514211402490000,0.583489990234375,9.910950660705566,1.849050045013428,-1.4530500173568726
1771514211423089700,0.604089599609375,9.916050910949709,1.966050148010254,-1.3840500116348269
1771514211443489300,0.6244892578125,10.066950798034668,1.9999500513076784,-1.336050033569336
1771514211463891200,0.64489111328125,10.167000770568848,1.8630000352859497,-1.4560500383377075
1771514211484292600,0.665292724609375,9.949950218200684,1.915950059890747,-1.7929500341415403
1771514211504691500,0.68569140625,9.637950897216797,2.035950183868408,-1.7880001068115234
1771514211525091000,0.706091064453125,9.669000625610352,2.127000093460083,-1.4839500188827517
1771514211545493200,0.7264931640625,9.86595058441162,2.088000059127808,-1.4680501222610474
1771514211565895000,0.74689501953125,9.91800022125244,1.897050142288208,-1.6399500370025637
1771514211586295300,0.76729541015625,10.108050346374512,1.885050058364868,-1.8049501180648804
1771514211606695200,0.787695068359375,10.230000495910645,1.801050066947937,-1.852950096130371
1771514211627098400,0.808098388671875,10.282050132751465,1.7890501022338867,-1.651950120925903
1771514211647505400,0.82850537109375,10.219950675964355,1.8919501304626465,-1.4629501104354858
1771514211667911700,0.84891162109375,10.090950012207031,1.9470001459121704,-1.4599500894546509
1771514211688314400,0.869314453125,10.063950538635254,1.8820500373840328,-1.615950107574463
1771514211708712400,0.88971240234375,10.17495059967041,1.8630000352859497,-1.6690500974655151
1771514211729111800,0.91011181640625,10.045050621032717,1.830000042915344,-1.6300500631332395
1771514211749518800,0.930518798828125,9.775050163269045,1.9039500951766968,-1.4410500526428225
1771514211769927400,0.950927490234375,9.799050331115724,2.1000001430511475,-1.3669500350952148
1771514211790332700,0.971332763671875,10.033050537109377,1.9830000400543213,-1.6230000257492063
1771514211810739500,0.991739501953125,10.267950057983398,1.8250501155853271,-1.717050075531006
1771514211831146000,1.01214599609375,10.27305030822754,1.76295006275177,-1.5319501161575315
1771514211851550000,1.032550048828125,10.254000663757324,1.801050066947937,-1.5109500885009766
1771514211871957800,1.052957763671875,10.093050003051758,1.8349500894546509,-1.5709500312805176
1771514211892364000,1.073364013671875,10.017000198364258,1.866000056266785,-1.7239500284194946
1771514211912766200,1.09376611328125,9.933000564575195,1.8079501390457156,-1.8960001468658447
1771514211933168400,1.11416845703125,9.86595058441162,1.7839500904083252,-1.8750001192092896
1771514211953570300,1.1345703125,9.811050415039062,1.7320500612258911,-1.585050106048584
1771514211973971500,1.154971435546875,10.00200080871582,1.7050501108169556,-1.336050033569336
1771514211994371300,1.175371337890625,10.231950759887695,1.7700001001358032,-1.3099501132965088
1771514212014770200,1.195770263671875,10.324950218200684,1.6140000820159912,-1.5390000343322754
1771514212035169000,1.2161689453125,10.351950645446776,1.4250000715255735,-1.7209501266479492
1771514212055570400,1.2365703125,10.31100082397461,1.4899500608444214,-1.7119500637054443
1771514212075974100,1.25697412109375,10.21095085144043,1.492050051689148,-1.599000096321106
1771514212096377300,1.27737744140625,10.24905014038086,1.492050051689148,-1.3720500469207764
1771514212116777700,1.29777783203125,10.342050552368164,1.5139501094818115,-1.602000117301941
1771514212137180400,1.318180419921875,10.324950218200684,1.4419500827789309,-1.76895010471344
1771514212157584100,1.338584228515625,10.23900032043457,1.4440500736236572,-1.8510000705718996
1771514212177985500,1.358985595703125,10.060050010681152,1.545000076293945,-1.7050501108169556
1771514212198389500,1.379389404296875,9.981000900268556,1.67205011844635,-1.4719500541687012
1771514212218794500,1.39979443359375,9.95205020904541,1.6810500621795654,-1.4839500188827517
1771514212239196000,1.42019580078125,9.949950218200684,1.6380001306533811,-1.8079501390457156
1771514212259595000,1.440594970703125,9.993000030517578,1.6380001306533811,-2.0209500789642334
1771514212279996400,1.460996337890625,10.230000495910645,1.6360501050949097,-1.912950038909912
1771514212300399900,1.48139990234375,10.428000450134276,1.5570000410079956,-1.8030000925064087
1771514212320804400,1.501804443359375,10.359000205993652,1.6210501194000244,-1.6230000257492063
1771514212341209900,1.5222099609375,10.132050514221191,1.6330500841140747,-1.590000033378601
1771514212361616400,1.542616455078125,10.054950714111328,1.5229500532150269,-1.6060501337051392
1771514212382025700,1.563025634765625,10.12695026397705,1.5349500179290771,-1.7119500637054443
1771514212402435600,1.583435546875,10.123950004577637,1.662000060081482,-1.7809500694274902
1771514212422840000,1.603840087890625,10.048050880432127,1.6530001163482666,-1.7190001010894775
1771514212443241000,1.624240966796875,10.02405071258545,1.662000060081482,-1.492050051689148
1771514212463641300,1.644641357421875,10.19895076751709,1.6260000467300415,-1.4080500602722168
1771514212484042000,1.6650419921875,10.090950012207031,1.5259500741958618,-1.717050075531006
1771514212504446200,1.6854462890625,9.906000137329102,1.662000060081482,-1.7790000438690186
1771514212524851200,1.705851318359375,9.801000595092772,1.6240500211715698,-1.4680501222610474
1771514212545257200,1.72625732421875,10.069050788879396,1.630950093269348,-1.3980001211166382
1771514212565662500,1.746662353515625,10.483050346374512,1.5810000896453855,-1.432050108909607
1771514212586066000,1.76706591796875,10.515000343322754,1.4350500106811523,-1.771950125694275
1771514212606467800,1.7874677734375,10.363950729370115,1.5210000276565552,-1.7760001420974731
1771514212626868500,1.807868408203125,10.177050590515137,1.6879501342773438,-1.659000039100647
1771514212647270000,1.828269775390625,10.167000770568848,1.8750001192092896,-1.4100000858306885
1771514212667672600,1.848672607421875,10.155000686645508,1.7869501113891602,-1.6300500631332395
1771514212688074200,1.86907421875,9.95205020904541,1.6669501066207886,-1.9369500875473025
1771514212708472300,1.889472412109375,9.7339506149292,1.759950041770935,-1.7329500913619995
1771514212728877000,1.909876953125,9.652950286865234,1.7200500965118408,-1.434000015258789
1771514212749286400,1.930286376953125,10.02405071258545,1.585050106048584,-1.5150001049041748
1771514212769694500,1.950694580078125,10.213050842285156,1.6840500831604004,-1.771950125694275
1771514212790099500,1.971099365234375,10.219950675964355,1.987950086593628,-1.9560000896453855
1771514212810504700,1.991504638671875,10.087950706481934,2.115000009536743,-1.7209501266479492
1771514212830910700,2.01191064453125,10.155000686645508,2.136000156402588,-1.5109500885009766
1771514212851313000,2.03231298828125,10.27305030822754,1.9489500522613523,-1.6690500974655151
1771514212871715000,2.052715087890625,10.033050537109377,1.8799500465393064,-1.585050106048584
1771514212892119000,2.073119140625,9.910950660705566,2.059950113296509,-1.5970500707626345
1771514212912521700,2.093521728515625,9.934950828552246,2.136000156402588,-1.915050148963928
1771514212932924700,2.113924560546875,10.165050506591797,2.155050039291382,-1.9009500741958616
1771514212953327400,2.134327392578125,10.167000770568848,2.143050193786621,-1.8840000629425049
1771514212973731300,2.1547314453125,9.873000144958496,2.1910500526428223,-1.6570501327514648
1771514212994140000,2.175139892578125,9.775050163269045,2.2009501457214355,-1.7119500637054443
1771514213014545000,2.195544921875,10.117050170898438,2.158050060272217,-1.8960001468658447
1771514213034944800,2.21594482421875,10.438050270080566,2.055000066757202,-1.924950122833252
1771514213055345400,2.236345458984375,10.38105010986328,2.0809500217437744,-1.6110000610351562
1771514213075747000,2.2567470703125,9.909000396728516,2.179050207138061,-1.3380000591278076
1771514213096149000,2.27714892578125,9.531000137329102,2.31600022315979,-1.5610500574111938
1771514213116551400,2.297551513671875,9.52305030822754,2.3560500144958496,-1.815000057220459
1771514213136955000,2.317954833984375,9.538050651550291,2.2890000343322754,-1.812000036239624
1771514213157355300,2.338355224609375,9.705000877380373,2.275050163269043,-1.675950050354004
1771514213177757000,2.3587568359375,9.753000259399414,2.293950080871582,-1.7089500427246094
1771514213198160000,2.379159912109375,9.8899507522583,2.361000061035156,-1.6660500764846802
1771514213218561300,2.399561279296875,10.00200080871582,2.2489500045776367,-1.7260501384735107
1771514213238962200,2.419962158203125,10.189050674438477,2.151000022888184,-1.7479500770568848
1771514213259364900,2.44036474609375,10.291950225830078,2.1820499897003174,-1.699950098991394
1771514213279766800,2.460766845703125,10.321050643920898,2.242050170898437,-1.699950098991394
1771514213300167400,2.48116748046875,10.25100040435791,2.3419501781463623,-1.651950120925903
1771514213320569000,2.501569091796875,10.048050880432127,2.4280500411987305,-1.891050100326538
1771514213340972000,2.521971923828125,9.763050079345703,2.425950050354004,-2.053950071334839
1771514213361374700,2.542374755859375,9.504000663757324,2.4280500411987305,-2.076000213623047
1771514213381775400,2.562775390625,9.39900016784668,2.518950223922729,-1.9920001029968264
1771514213402175000,2.583175048828125,9.364950180053713,2.5909500122070312,-1.824000120162964
1771514213422574800,2.603574951171875,9.48705005645752,2.526000022888184,-1.8360000848770144
1771514213442972400,2.623972412109375,9.672000885009766,2.482950210571289,-1.9270501136779783
1771514213463370000,2.644369873046875,10.063950538635254,2.353950023651123,-2.0350501537323
1771514213483769600,2.66476953125,10.254000663757324,2.1700501441955566,-2.073000192642212
1771514213504169700,2.685169677734375,10.155000686645508,2.086050033569336,-1.981950044631958
1771514213524574200,2.70557421875,10.026000022888184,2.1910500526428223,-1.743000030517578
1771514213544980200,2.725980224609375,9.98805046081543,2.1859500408172607,-1.8199501037597656
1771514213565383700,2.7463837890625,9.946950912475586,2.076000213623047,-1.9750500917434688
1771514213585784300,2.766784423828125,9.850950241088867,2.026050090789795,-2.0020501613616943
1771514213606183200,2.78718310546875,9.768000602722168,2.044950008392334,-1.920000076293945
1771514213626583000,2.8075830078125,9.744000434875488,2.0910000801086426,-1.822050094604492
1771514213646981400,2.8279814453125,9.633000373840332,2.0429999828338623,-1.8720000982284544
1771514213667379500,2.84837939453125,9.645000457763672,2.0929501056671143,-1.7929500341415403
1771514213687780400,2.8687802734375,9.801000595092772,1.8750001192092896,-1.8510000705718996
1771514213708179500,2.889179443359375,9.922950744628906,1.702950119972229,-1.8510000705718996
1771514213728575000,2.909574951171875,10.090950012207031,1.6170001029968262,-1.822050094604492
1771514213748973300,2.929973388671875,10.120050430297852,1.6600500345230105,-1.5510001182556152
1771514213769376000,2.9503759765625,10.443000793457031,1.7080501317977903,-1.4959501028060913
1771514213789781800,2.97078173828125,10.58595085144043,1.4299501180648804,-1.980000138282776
1771514213810183200,2.99118310546875,10.495050430297852,1.2619500160217283,-2.131050109863281
1771514213830582000,3.01158203125,10.336950302124023,1.3579500913619995,-1.65405011177063
1771514213850982100,3.031982177734375,10.254000663757324,1.4680501222610474,-1.3840500116348269
1771514213871380200,3.052380126953125,10.27500057220459,1.4010000228881836,-1.4959501028060913
1771514213891777800,3.07277783203125,10.327950477600098,1.3650000095367432,-1.6780500411987305
1771514213912177700,3.093177734375,10.155000686645508,1.3099501132965088,-1.7670000791549685
1771514213932576500,3.113576416015625,10.00005054473877,1.240950107574463,-1.5250500440597534
1771514213952977200,3.13397705078125,10.051950454711914,1.423050045967102,-1.2660000324249268
1771514213973382000,3.1543818359375,10.335000038146973,1.474950075149536,-1.5490500926971436
1771514213993782800,3.17478271484375,10.39995002746582,1.3270500898361206,-1.7790000438690186
1771514214014178800,3.1951787109375,10.471050262451172,1.207050085067749,-1.7359501123428345
1771514214034577200,3.2155771484375,10.404000282287598,1.1860500574111938,-1.647000074386597
1771514214054978300,3.235978271484375,10.255950927734377,1.284000039100647,-1.4389500617980957
1771514214075379500,3.25637939453125,10.042950630187988,1.4080500602722168,-1.429050087928772
1771514214095780900,3.27678076171875,9.885000228881836,1.4830501079559326,-1.6500000953674316
1771514214116184800,3.297184814453125,9.883050918579102,1.360050082206726,-1.8409501314163208
1771514214136587500,3.31758740234375,10.02405071258545,1.2769500017166138,-1.6060501337051392
1771514214156984300,3.337984375,10.13895034790039,1.3200000524520874,-1.3020000457763672
1771514214177380900,3.358380859375,10.159950256347656,1.3320000171661377,-1.3549500703811646
1771514214197779200,3.378779296875,10.038000106811523,1.3170000314712524,-1.5610500574111938
1771514214218180000,3.39918017578125,9.894000053405762,1.3650000095367432,-1.647000074386597
1771514214238579500,3.419579345703125,9.861000061035156,1.4869500398635864,-1.5919500589370728
1771514214258978000,3.43997802734375,9.96405029296875,1.363050103187561,-1.6210501194000244
1771514214279376400,3.46037646484375,10.110000610351562,1.3440001010894775,-1.519950032234192
1771514214299772000,3.48077197265625,10.25100040435791,1.360050082206726,-1.3860000371932983
1771514214320170500,3.50117041015625,10.27305030822754,1.2739500999450684,-1.4719500541687012
1771514214340570600,3.521570556640625,10.255950927734377,1.300950050354004,-1.4719500541687012
1771514214360971800,3.5419716796875,10.218000411987305,1.339050054550171,-1.543950080871582
1771514214381369300,3.562369384765625,10.158000946044922,1.3290001153945925,-1.7329500913619995
1771514214401762300,3.58276220703125,10.146000862121582,1.305000066757202,-1.615950107574463
1771514214422161000,3.603160888671875,10.243950843811035,1.2000000476837158,-1.6110000610351562
1771514214442563800,3.623563720703125,10.339950561523438,1.128000020980835,-1.602000117301941
1771514214462967800,3.6439677734375,10.330050468444824,1.198050022125244,-1.6350001096725464
1771514214483371500,3.66437158203125,10.291950225830078,1.2430500984191897,-1.750050067901611
1771514214503775000,3.68477490234375,10.219950675964355,1.3170000314712524,-1.8600001335144043
1771514214524181000,3.705180908203125,10.24905014038086,1.3960500955581665,-1.954050064086914
1771514214544584700,3.725584716796875,10.303950309753418,1.495050072669983,-1.9969501495361328
1771514214564986600,3.745986572265625,10.213050842285156,1.546950101852417,-1.9369500875473025
1771514214585390000,3.76639013671875,10.21500015258789,1.5949500799179075,-1.8840000629425049
1771514214605790200,3.786790283203125,10.194000244140623,1.6549500226974487,-1.912950038909912
1771514214626188800,3.807188720703125,10.306050300598145,1.6410000324249268,-1.9270501136779783
1771514214646589400,3.82758935546875,10.303950309753418,1.4629501104354858,-1.822050094604492
1771514214666990000,3.847989990234375,10.291950225830078,1.2139500379562378,-1.4839500188827517
1771514214687390500,3.868390380859375,10.342050552368164,1.0969500541687012,-1.4269500970840454
1771514214707790300,3.888790283203125,10.348950386047363,0.9100500345230104,-1.4800500869750977
1771514214728188000,3.90918798828125,10.333050727844238,0.843000054359436,-1.599000096321106
1771514214748586500,3.92958642578125,10.141050338745115,0.831000030040741,-1.651950120925903
1771514214768988000,3.94998779296875,9.873000144958496,0.7830000519752502,-1.594050049781799
1771514214789388500,3.970388427734375,9.664950370788574,0.6589500308036804,-1.5709500312805176
1771514214809787100,3.990787109375,9.729000091552734,0.6570000052452087,-1.5750000476837158
1771514214830189300,4.011189208984375,9.897000312805176,0.6919500231742859,-1.6090500354766846
1771514214850593000,4.031593017578125,10.029000282287598,0.5989500284194946,-1.717050075531006
1771514214870995200,4.0519951171875,9.98805046081543,0.5659500360488892,-1.7929500341415403
1771514214891398100,4.072398193359375,10.093050003051758,0.5989500284194946,-1.594050049781799
1771514214911800800,4.09280078125,10.246050834655762,0.6040500402450562,-1.5780000686645508
1771514214932203300,4.113203369140625,10.291950225830078,0.4909500181674957,-1.8169500827789309
1771514214952605000,4.13360498046875,10.24905014038086,0.6040500402450562,-1.9300501346588133
1771514214973006300,4.15400634765625,10.141050338745115,0.7519500255584717,-1.8889501094818115
1771514214993408300,4.174408203125,10.32300090789795,0.7830000519752502,-1.810050129890442
1771514215013809200,4.19480908203125,10.375950813293455,0.7159500122070312,-1.932000041007996
1771514215034211000,4.215211181640625,10.336950302124023,0.8050500154495239,-2.088000059127808
1771514215054610400,4.2356103515625,10.177050590515137,0.9510000348091124,-2.0970001220703125
1771514215075011300,4.25601123046875,10.01205062866211,0.9559500217437744,-2.1090002059936523
1771514215095415800,4.276415771484375,10.117050170898438,0.915000021457672,-2.0470499992370605
1771514215115815700,4.296815673828125,10.2610502243042,0.8890500664710999,-1.8840000629425049
1771514215136215800,4.3172158203125,10.342050552368164,0.9169500470161438,-1.831950068473816
1771514215156617700,4.33761767578125,10.321050643920898,0.843000054359436,-1.9489500522613523
1771514215177015600,4.358015625,10.16295051574707,0.7980000376701355,-1.831950068473816
1771514215197412400,4.378412353515625,10.098000526428224,0.8149500489234924,-1.759950041770935
1771514215217810000,4.398809814453125,10.129050254821776,0.9580500721931458,-1.6950000524520874
1771514215238208300,4.419208251953125,10.234050750732422,0.999000072479248,-1.7260501384735107
1771514215258606800,4.43960693359375,10.312950134277344,1.0060499906539917,-1.5630000829696655
1771514215279004200,4.460004150390625,10.363950729370115,0.9769500494003296,-1.6380001306533811
1771514215299404500,4.480404541015625,10.414050102233888,1.0470000505447388,-1.743000030517578
1771514215319805200,4.50080517578125,10.419000625610352,1.075950026512146,-1.7190001010894775
1771514215340200400,4.521200439453125,10.443000793457031,1.144950032234192,-1.5079500675201416
1771514215360596500,4.541596435546875,10.516950607299805,1.123050093650818,-1.5679501295089722
1771514215380992300,4.5619921875,10.419000625610352,1.042050004005432,-1.6950000524520874
1771514215401388500,4.582388427734375,10.330050468444824,1.1040000915527344,-1.7479500770568848
1771514215421787600,4.60278759765625,10.375950813293455,1.0399500131607056,-1.771950125694275
1771514215442185200,4.623185302734375,10.27500057220459,1.2960000038146973,-1.4269500970840454
1771514215462583300,4.643583251953125,9.997050285339355,1.2960000038146973,-1.8199501037597656
1771514215482983400,4.6639833984375,10.110000610351562,0.8220000267028809,-1.4269500970840454
1771514215503383300,4.68438330078125,10.504950523376465,0.7570500373840332,-1.812000036239624
1771514215523782400,4.704782470703125,10.179000854492188,1.1759999990463257,-1.141950011253357
1771514215544179700,4.7251796875,10.134000778198242,1.198050022125244,-0.8880000710487366
1771514215564576800,4.74557666015625,9.906000137329102,0.9370500445365906,-1.2330000400543213
1771514215584974300,4.765974365234375,9.676950454711914,0.8029500246047974,-1.594050049781799
1771514215605374700,4.786374755859375,9.583050727844238,0.7950000166893005,-1.3840500116348269
1771514215625776000,4.806776123046875,9.38895034790039,0.4080000221729278,-0.8860500454902649
1771514215646175200,4.82717529296875,9.44700050354004,0.1270500123500824,-0.6769500374794006
1771514215666572800,4.84757275390625,9.910950660705566,0.1849500089883804,-0.5530500411987305
1771514215686973000,4.867972900390625,10.831050872802734,-0.0270000007003545,-1.1080501079559326
1771514215707375600,4.888375732421875,11.175000190734863,-0.1830000132322311,-1.3549500703811646
1771514215727778000,4.908778076171875,11.155950546264648,-0.1540500074625015,-1.3930500745773315
1771514215748178700,4.9291787109375,11.128050804138184,0.0990000069141388,-1.377000093460083
1771514215768578600,4.94957861328125,10.56195068359375,0.2689500153064728,-1.6660500764846802
1771514215788978200,4.969978271484375,10.057050704956056,0.3979500234127044,-1.7089500427246094
1771514215809373700,4.990373779296875,9.906000137329102,0.4630500078201294,-1.4700000286102295
1771514215829769200,5.010769287109375,9.95895004272461,0.3499500155448913,-1.2310500144958496
1771514215850166300,5.031166259765625,10.234050750732422,0.3859500288963318,-1.2690000534057615
1771514215870563300,5.051563232421875,10.018950462341309,0.2710500061511993,-1.4719500541687012
1771514215890962700,5.071962646484375,9.9660005569458,0.5320500135421753,-1.3960500955581665
1771514215911363300,5.09236328125,10.230000495910645,0.6799500584602356,-1.3690500259399414
1771514215931762000,5.112761962890625,10.467000961303713,0.4099500179290771,-1.4530500173568726
1771514215952159500,5.133159423828125,10.84695053100586,0.4630500078201294,-1.1470500230789185
1771514215972554800,5.1535546875,10.993050575256348,0.3330000042915344,-0.895050048828125
1771514215992950800,5.17395068359375,10.771050453186035,0.4510500133037567,-1.0369499921798706
1771514216013347600,5.19434765625,10.159950256347656,0.7140000462532043,-1.5829501152038574
1771514216033742000,5.2147421875,9.825000762939451,0.9490500688552856,-1.7190001010894775
1771514216054140200,5.23514013671875,9.873000144958496,0.3400500118732452,-2.559000015258789
1771514216074539000,5.2555390625,9.933000564575195,0.9199500679969788,-2.3800501823425293
1771514216094940200,5.275940185546875,9.906000137329102,1.516050100326538,-1.5540000200271606
1771514216115343600,5.296343505859375,9.832050323486328,1.210050106048584,-1.6090500354766846
1771514216135745800,5.316745849609375,9.592950820922852,0.9580500721931458,-1.908000111579895
1771514216156145400,5.3371455078125,9.241050720214844,1.207050085067749,-1.7640000581741333
1771514216176543500,5.35754345703125,9.777000427246094,1.207050085067749,-1.7070001363754272
1771514216196942300,5.3779423828125,10.440000534057615,1.0039499998092651,-1.65405011177063
1771514216217339400,5.39833935546875,10.797000885009766,0.690000057220459,-1.6900501251220703
1771514216237737000,5.418737060546875,10.795050621032717,0.7470000386238098,-1.7860500812530518
1771514216258134000,5.439134033203125,10.516950607299805,0.8839500546455383,-1.6780500411987305
1771514216278528300,5.4595283203125,10.231950759887695,0.7950000166893005,-1.6810500621795654
1771514216298922800,5.4799228515625,9.792000770568848,0.7020000219345093,-1.7290500402450562
1771514216319322600,5.500322509765625,9.796050071716309,0.6970500349998474,-1.7809500694274902
1771514216339726000,5.52072607421875,10.27500057220459,0.7240500450134277,-1.65405011177063
1771514216360126700,5.541126708984375,10.498050689697266,0.7950000166893005,-1.915050148963928
1771514216380525800,5.56152587890625,10.468950271606444,1.0110000371932983,-2.2480502128601074
1771514216400925000,5.581925048828125,9.696000099182127,1.2889500856399536,-1.980000138282776
1771514216421322500,5.602322509765625,9.373050689697266,1.585050106048584,-1.377000093460083
1771514216441717500,5.622717529296875,9.583050727844238,1.8229501247406008,-1.4269500970840454
1771514216462111200,5.643111328125,9.949950218200684,2.067000150680542,-1.963050127029419
1771514216482504200,5.663504150390625,9.820050239562988,2.244000196456909,-1.750050067901611
1771514216502896000,5.683896240234375,9.760050773620604,2.136000156402588,-1.377000093460083
1771514216523288800,5.704288818359375,10.182000160217283,2.055000066757202,-1.120050072669983
1771514216543486200,5.724486328125,10.351950645446776,1.7839500904083252,-0.5460000038146973
1771514216553784600,5.73478466796875,10.558050155639648,2.0809500217437744,-0.8400000333786011
1771514216574286000,5.7552861328125,11.056050300598145,2.305950164794922,-1.91100013256073
1771514216594692000,5.775692138671875,11.932050704956056,2.184000015258789,-2.13795018196106
1771514216615093800,5.79609375,12.078001022338867,1.6669501066207886,-1.810050129890442
1771514216635491800,5.816491943359375,11.73300075531006,1.1880000829696655,-1.4940000772476196
1771514216655889700,5.8368896484375,11.206950187683104,1.2690000534057615,-1.221000075340271
1771514216676292900,5.85729296875,10.69200038909912,1.3150500059127808,-1.1080501079559326
1771514216696697900,5.87769775390625,10.41195011138916,1.300950050354004,-0.9820500612258912
1771514216717099300,5.898099365234375,10.21095085144043,1.3150500059127808,-1.128000020980835
1771514216737498000,5.918498046875,9.787050247192385,1.453950047492981,-1.1179500818252563
1771514216757897000,5.93889697265625,9.44895076751709,1.5349500179290771,-1.116000056266785
1771514216778296000,5.959296142578125,9.370050430297852,1.6530001163482666,-0.89805006980896
1771514216798697500,5.979697509765625,9.46095085144043,1.6000500917434692,-0.5860500335693359
1771514216819104800,6.000104736328125,9.54705047607422,1.67205011844635,-0.4210500121116638
1771514216839511800,6.02051171875,9.765000343322754,1.8750001192092896,-0.3330000042915344
1771514216859914500,6.04091455078125,9.799050331115724,1.91100013256073,-0.4189500212669372
1771514216880313600,6.061313720703125,9.997050285339355,2.052000045776367,-0.2419500052928924
1771514216900711000,6.0817109375,10.207950592041016,2.124000072479248,-0.309000015258789
1771514216921111600,6.102111572265625,10.39995002746582,2.242050170898437,-0.5100000500679016
1771514216941516000,6.12251611328125,10.531050682067873,2.30400013923645,-0.534000039100647
1771514216961920500,6.14292041015625,10.5600004196167,2.1289501190185547,-0.3450000286102295
1771514216982322700,6.16332275390625,10.879050254821776,2.155050039291382,-0.3300000131130218
1771514217002723300,6.183723388671875,11.278050422668455,2.110050201416016,-0.5839500427246094
1771514217023123000,6.204123046875,11.338050842285156,2.062050104141236,-0.6180000305175781
1771514217043523800,6.22452392578125,11.00295066833496,1.971000075340271,-0.5410500168800354
1771514217063926300,6.24492626953125,10.531050682067873,1.842000126838684,-0.675000011920929
1771514217084330200,6.265330322265625,9.994950294494627,1.8349500894546509,-0.7969500422477722
1771514217104733200,6.285733154296875,9.67905044555664,1.9210500717163088,-1.0150500535964966
1771514217125133000,6.306133056640625,9.70305061340332,1.9450501203536987,-0.7879500389099121
1771514217145531600,6.32653173828125,9.75795078277588,1.806000113487244,-0.2939999997615814
1771514217165930500,6.346930419921875,9.520950317382812,1.6740000247955322,-0.4279500246047973
1771514217186333000,6.3673330078125,9.267000198364258,2.026050090789795,-0.2299500107765197
1771514217206737200,6.387737060546875,9.13094997406006,2.062050104141236,-0.5070000290870667
1771514217227136500,6.408136474609375,9.613950729370115,2.2129499912261963,-0.7800000309944153
1771514217247534600,6.42853466796875,10.41195011138916,2.136000156402588,-1.699950098991394
1771514217267933400,6.448933349609375,11.056050300598145,1.9690500497817995,-2.31000018119812
1771514217288330800,6.469330810546875,11.616000175476074,1.6120500564575195,-2.2890000343322754
1771514217308729000,6.48972900390625,11.974950790405272,1.3650000095367432,-1.5630000829696655
1771514217329131000,6.510131103515625,11.707050323486328,1.300950050354004,-0.9550500512123108
1771514217349532400,6.530532470703125,11.29995059967041,1.516050100326538,-1.237950086593628
1771514217369932000,6.55093212890625,10.630050659179688,2.0839500427246094,-1.3960500955581665
1771514217390329600,6.57132958984375,9.850950241088867,2.151000022888184,-2.200050115585327
1771514217410724400,6.591724365234375,9.825000762939451,2.245950222015381,-2.650050163269043
1771514217431119400,6.612119384765625,10.395000457763672,2.0190000534057617,-2.734050035476685
1771514217451515000,6.632514892578125,10.54800033569336,2.0209500789642334,-2.0850000381469727
1771514217471911400,6.652911376953125,9.85395050048828,2.115000009536743,-1.0440000295639038
1771514217492311600,6.6733115234375,9.407999992370604,2.059950113296509,-0.8790000677108765
1771514217512716500,6.693716552734375,8.620950698852539,2.5030500888824463,-0.4960500299930572
1771514217533123000,6.714123046875,7.837950229644775,2.9260501861572266,-0.6940500140190125
1771514217553528300,6.7345283203125,7.723050594329834,3.135000228881836,-1.2690000534057615
1771514217573929500,6.754929443359375,8.6850004196167,2.968950033187866,-1.290000081062317
1771514217594327300,6.775327392578125,9.370050430297852,2.5890002250671387,-0.8470500111579895
1771514217614724400,6.795724365234375,9.183000564575195,3.063000202178955,0.2070000171661377
1771514217635121700,6.81612158203125,8.535000801086426,3.642000198364258,0.527999997138977
1771514217655521500,6.836521484375,7.873950481414795,4.114050388336182,0.3799500167369842
1771514217675922400,6.85692236328125,7.759050369262695,3.891000270843506,-0.7639500498771667
1771514217696320300,6.8773203125,9.46095085144043,3.3550500869750977,-2.1859500408172607
1771514217716715500,6.897715576171875,11.998950958251951,2.5069501399993896,-2.800950050354004
1771514217737112000,6.918112060546875,13.303950309753418,1.5259500741958618,-1.9009500741958616
1771514217757510700,6.9385107421875,12.969000816345217,0.5730000138282776,-0.7560000419616699
1771514217777908500,6.958908447265625,12.154950141906738,0.4980000257492065,0.0829500034451484
1771514217798305000,6.979304931640625,11.938950538635254,0.831000030040741,-0.4240500330924988
1771514217818701600,6.99970166015625,11.671051025390623,1.7940000295639038,-1.2109500169754028
1771514217839099400,7.020099365234375,10.546050071716309,2.293950080871582,-1.8889501094818115
1771514217859497700,7.040497802734375,9.310050010681152,2.464050054550171,-2.3490002155303955
1771514217879896300,7.060896240234375,8.749950408935547,2.2270500659942627,-2.5039501190185547
1771514217900295700,7.081295654296875,9.135000228881836,2.1289501190185547,-2.586000204086304
1771514217920696300,7.1016962890625,9.937950134277344,2.131050109863281,-2.4780001640319824
1771514217941096000,7.122095947265625,9.820050239562988,2.1220500469207764,-2.0160000324249268
1771514217961490000,7.142489990234375,8.958000183105469,2.164950132369995,-1.4149500131607056
1771514217981884700,7.162884765625,8.094000816345215,2.5410001277923584,-0.8809500336647034
1771514218002281000,7.183281005859375,7.648950576782227,3.261000156402588,-0.6340500116348267
1771514218022678000,7.203677978515625,8.518050193786621,4.234050273895264,-0.5820000171661377
1771514218043075800,7.224075927734375,9.286050796508787,4.573950290679932,-0.9070500135421752
1771514218063474400,7.244474365234375,8.784000396728516,4.425000190734863,-1.6879501342773438
1771514218083872300,7.264872314453125,8.09595012664795,3.478950262069702,-3.0670502185821533
1771514218104266000,7.285265869140625,9.334050178527832,2.6610000133514404,-3.823950290679932
1771514218124658400,7.305658447265625,11.934000968933104,2.593050241470337,-3.4549500942230225
1771514218145049600,7.326049560546875,12.910950660705566,2.7520501613616943,-2.1880500316619877
1771514218165440000,7.34643994140625,11.85105037689209,3.06000018119812,-0.8860500454902649
1771514218185833000,7.3668330078125,9.897000312805176,3.5299501419067383,-0.6510000228881836
1771514218206228700,7.387228759765625,9.222000122070312,3.453000068664551,-1.7449500560760498
1771514218226622500,7.40762255859375,10.312950134277344,2.8189501762390137,-3.031050205230713
1771514218247014000,7.428013916015625,10.713000297546388,2.683950185775757,-2.7940502166748047
1771514218267407600,7.44840771484375,9.550050735473633,2.932950258255005,-1.7860500812530518
1771514218287803100,7.46880322265625,7.986000537872314,2.8590002059936523,-1.3860000371932983
1771514218308196900,7.48919677734375,7.510050296783447,3.075000047683716,-1.1130000352859497
1771514218328587800,7.509587890625,8.592000007629395,3.550950050354004,-1.3120501041412354
1771514218348979500,7.5299794921875,9.234000205993652,3.4390501976013184,-1.1710500717163086
1771514218369373700,7.550373779296875,8.592000007629395,3.513000249862671,-0.7369500398635864
1771514218389770500,7.5707705078125,7.98900032043457,3.7789502143859854,-0.6799500584602356
1771514218410168000,7.59116796875,8.605950355529785,3.907950162887573,-1.2139500379562378
1771514218430562000,7.61156201171875,9.844050407409668,3.574950218200684,-1.543950080871582
1771514218450955000,7.631955078125,10.455000877380373,3.3169500827789307,-1.4410500526428225
1771514218471350000,7.65235009765625,10.801950454711914,3.019950151443481,-1.1920500993728638
1771514218491744000,7.672743896484375,10.594050407409668,2.754000186920166,-1.4239500761032104
1771514218512138200,7.69313818359375,10.498050689697266,3.0840001106262207,-1.5130500793457031
1771514218532536000,7.7135361328125,10.632000923156738,3.2470500469207764,-1.5679501295089722
1771514218552934400,7.733934326171875,9.760050773620604,2.9770500659942627,-1.5919500589370728
1771514218573329200,7.7543291015625,9.637950897216797,3.055950164794922,-1.2619500160217283
1771514218593723000,7.774722900390625,11.046000480651855,3.0580501556396484,-1.3620001077651978
1771514218614115800,7.79511572265625,10.97895050048828,2.6100001335144043,-2.0089499950408936
1771514218634509000,7.815509033203125,8.428950309753418,2.641050100326538,-1.978050112724304
1771514218654903800,7.83590380859375,6.637950420379639,3.609000205993652,-1.4389500617980957
1771514218675299300,7.85629931640625,7.203000545501709,3.951000213623047,-1.3339500427246094
1771514218695695600,7.876695556640625,9.17400074005127,3.4429502487182617,-1.6399500370025637
1771514218716091100,7.897091064453125,10.902000427246094,2.3779501914978027,-2.1190500259399414
1771514218736484600,7.917484619140625,10.855050086975098,1.9690500497817995,-2.2480502128601074
1771514218756877300,7.937877197265625,9.885000228881836,2.242050170898437,-1.6210501194000244
1771514218777269000,7.95826904296875,9.636000633239746,1.954050064086914,-1.072950005531311
1771514218797658000,7.978658203125,9.696000099182127,1.7320500612258911,-0.6420000195503235
1771514218818050800,7.99905078125,11.11305046081543,1.806000113487244,-1.2310500144958496
1771514218838447900,8.01944775390625,11.878950119018556,1.8370500802993772,-1.8720000982284544
1771514218858843600,8.03984375,11.61405086517334,1.849050045013428,-2.0689501762390137
1771514218879240400,8.060240478515626,10.747050285339355,1.9470001459121704,-2.1160500049591064
1771514218899638500,8.080638427734375,10.098000526428224,2.296950101852417,-2.410950183868408
1771514218920032800,8.10103271484375,9.454050064086914,2.493000030517578,-2.8780500888824463
1771514218940423400,8.12142333984375,9.205050468444824,2.5290000438690186,-3.1750502586364746
1771514218960814800,8.14181494140625,9.211950302124023,2.505000114440918,-3.213000059127808
1771514218981207800,8.162207763671875,9.271950721740724,2.4430501461029053,-3.201000213623047
1771514219001600000,8.18260009765625,9.154950141906738,2.373000144958496,-2.8560001850128174
1771514219021991200,8.2029912109375,9.15195083618164,2.565000057220459,-2.302950143814087
1771514219042387200,8.22338720703125,9.49905014038086,2.517000198364258,-1.6710001230239868
1771514219062786000,8.2437861328125,10.291950225830078,2.425950050354004,-1.222950100898743
1771514219083182000,8.26418212890625,10.759050369262695,2.376000165939331,-1.165950059890747
1771514219103576800,8.284576904296875,11.080050468444824,2.3779501914978027,-1.290000081062317
1771514219123970000,8.304969970703125,11.26395034790039,2.5669500827789307,-1.9939501285552976
1771514219144362200,8.3253623046875,10.576950073242188,2.680050134658813,-2.823000192642212
1771514219164754400,8.34575439453125,9.799050331115724,2.449950218200684,-3.4740002155303955
1771514219185148200,8.366148193359376,9.793950080871582,1.8820500373840328,-3.535950183868408
1771514219205540900,8.386540771484375,10.633950233459473,1.5520501136779783,-2.5570502281188965
1771514219225933600,8.40693359375,11.331000328063965,1.2859500646591189,-1.683000087738037
1771514219246333000,8.4273330078125,11.163000106811523,1.53000009059906,-1.0890001058578491
1771514219266733300,8.4477333984375,10.594050407409668,1.7700001001358032,-0.8350500464439392
1771514219287130000,8.468130126953126,10.129050254821776,1.818000078201294,-1.2660000324249268
1771514219307529700,8.48852978515625,9.897000312805176,1.8229501247406008,-1.8649500608444212
1771514219327930000,8.50893017578125,9.64995002746582,2.143050193786621,-2.0299501419067383
1771514219348330200,8.529330322265626,9.382050514221191,2.388000011444092,-2.025000095367432
1771514219368730000,8.549730224609375,9.016050338745115,2.526000022888184,-2.1450002193450928
1771514219389124600,8.57012451171875,8.431950569152832,2.6700000762939453,-1.9939501285552976
1771514219409518300,8.590518310546875,7.834950447082519,3.01200008392334,-1.879050135612488
1771514219429913300,8.610913330078125,7.921950340270996,3.2500500679016118,-1.615950107574463
1771514219450305800,8.631305908203124,9.07800006866455,3.3600001335144043,-1.6090500354766846
1771514219470699500,8.651699462890624,10.312950134277344,3.135000228881836,-2.0970001220703125
1771514219491099000,8.672098876953125,10.833000183105469,2.9170501232147217,-2.0350501537323
1771514219511497000,8.6924970703125,10.68000030517578,2.983950138092041,-1.4389500617980957
1771514219531892000,8.71289208984375,10.23900032043457,2.866050243377685,-1.0609500408172607
1771514219552290000,8.7332900390625,9.811050415039062,2.746950149536133,-0.8620500564575195
1771514219572689400,8.753689453125,10.081050872802734,2.893050193786621,-1.0800000429153442
1771514219593086200,8.774086181640625,10.408950805664062,2.754000186920166,-1.527000069618225
1771514219613483300,8.794483154296875,10.335000038146973,2.422950029373169,-1.4389500617980957
1771514219633882600,8.814882568359375,9.637950897216797,2.2800002098083496,-0.8860500454902649
1771514219654280200,8.8352802734375,9.12600040435791,2.385000228881836,-0.7230000495910645
1771514219674675000,8.855675048828125,9.118950843811035,2.353950023651123,-1.3669500350952148
1771514219695070500,8.876070556640625,9.466050148010254,2.179050207138061,-1.771950125694275
1771514219715465700,8.8964658203125,9.406050682067873,1.758000135421753,-1.7329500913619995
1771514219735861500,8.916861572265624,8.958000183105469,1.7989500761032104,-1.2499500513076782
1771514219756259600,8.937259521484375,8.57295036315918,2.098050117492676,-1.222950100898743
1771514219776656400,8.957656494140625,8.484000205993652,2.032950162887573,-1.5349500179290771
1771514219797052700,8.978052734375,8.403000831604004,2.407050132751465,-1.5919500589370728
1771514219817450200,8.9984501953125,8.5420503616333,3.0010502338409424,-1.5319501161575315
1771514219837849000,9.01884912109375,9.504000663757324,2.8780500888824463,-1.4440500736236572
1771514219858248400,9.03924853515625,10.69200038909912,2.3010001182556152,-0.9409500360488892
1771514219878646800,9.059646728515624,11.233050346374512,2.158050060272217,-0.5029500126838684
1771514219899043600,9.080043701171874,10.881000518798828,2.422950029373169,-0.8449500203132629
1771514219919439000,9.100439208984374,10.809000968933104,2.4190502166748047,-1.0750499963760376
1771514219939834600,9.120834716796876,11.71695041656494,1.9810501337051392,-1.2570000886917114
1771514219960233200,9.141233154296875,12.552000999450684,1.5810000896453855,-1.336050033569336
1771514219980633300,9.16163330078125,11.818950653076172,1.1779500246047974,-1.276050090789795
1771514220001033500,9.182033447265624,10.89495086669922,0.843000054359436,-0.8350500464439392
1771514220021432600,9.2024326171875,10.845000267028809,0.6490500569343567,-0.2899500131607055
1771514220041833200,9.222833251953125,11.10105037689209,0.5419500470161438,-0.1840500086545944
1771514220062233900,9.24323388671875,10.363950729370115,0.7069500088691711,-0.4450500309467315
1771514220082633700,9.2636337890625,9.229050636291504,1.054050087928772,-0.675000011920929
1771514220103036200,9.2840361328125,8.37600040435791,1.360050082206726,-1.01295006275177
1771514220123439400,9.304439453125,8.341050148010254,1.2049500942230225,-1.4149500131607056
1771514220143841500,9.324841552734377,8.961000442504883,0.7140000462532043,-1.5780000686645508
1771514220164242200,9.3452421875,8.239950180053711,0.5299500226974487,-1.5559500455856323
1771514220184640500,9.365640625,7.512000560760498,0.5509500503540039,-1.374000072479248
1771514220205034500,9.386034423828123,7.299000263214111,0.283050000667572,-1.0630500316619873
1771514220225428200,9.40642822265625,7.191000461578369,0.0940500050783157,-1.0579500198364258
1771514220245824000,9.426823974609375,8.695050239562988,0.139050006866455,-1.6780500411987305
1771514220266217500,9.447217529296877,10.021050453186035,-0.3289500176906585,-2.322000026702881
1771514220286612200,9.4676123046875,8.683050155639648,-1.4140501022338867,-3.1650002002716064
1771514220307009000,9.488009033203124,8.452950477600098,0.9100500345230104,0.5110500454902649
1771514220327404300,9.508404296875,12.247950553894045,0.2449500113725662,0.4039500057697296
1771514220347796200,9.528796142578123,17.50800132751465,-0.1300500035285949,-0.0619500018656253
1771514220368185900,9.549185791015624,17.748001098632812,0.8550000190734863,0.3340500295162201
1771514220388582700,9.569582763671876,16.251001358032227,0.8479500412940979,-0.6540000438690186
1771514220408983800,9.58998388671875,15.892050743103027,0.8650500178337097,-0.8089500665664673
1771514220429383700,9.6103837890625,13.881000518798828,0.8220000267028809,0.3529500067234039
1771514220449780500,9.630780517578126,11.563050270080566,0.534000039100647,0.322050005197525
1771514220470174000,9.651174072265626,9.91800022125244,0.7120500206947327,-0.5359500050544739
1771514220490566100,9.671566162109375,9.39900016784668,1.1740500926971436,-0.8929500579833984
1771514220510961700,9.691961669921875,7.938000202178955,1.5810000896453855,-0.5959500074386597
1771514220531361300,9.712361328125,7.656000137329102,1.360050082206726,-0.1890000104904174
1771514220551761000,9.732760986328126,8.842950820922852,0.9970500469207764,-0.1699500083923339
1771514220572160500,9.753160400390623,10.957950592041016,0.6109500527381897,-0.8470500111579895
1771514220592563700,9.773563720703123,10.98900032043457,0.690000057220459,-1.6849501132965088
1771514220612968700,9.79396875,8.925000190734863,1.2769500017166138,-1.4530500173568726
1771514220633371600,9.81437158203125,8.119950294494629,1.8820500373840328,-1.0800000429153442
1771514220653770200,9.834770263671874,9.070950508117676,1.6740000247955322,-0.7350000143051147
1771514220674167000,9.8551669921875,11.605950355529783,1.2049500942230225,-1.1920500993728638
1771514220694567200,9.875567138671874,13.017000198364258,1.2430500984191897,-1.1299500465393066
1771514220714967600,9.895967529296875,12.307950973510742,1.6260000467300415,-2.1070501804351807
1771514220735366100,9.9163662109375,11.368950843811035,1.702950119972229,-2.322000026702881
1771514220755764700,9.9367646484375,10.426050186157228,1.9590001106262207,-2.1070501804351807
1771514220776164000,9.9571640625,8.56605052947998,1.9090501070022583,-1.9270501136779783
1771514220796563700,9.977563720703126,7.9770002365112305,2.467050075531006,-0.856950044631958
1771514220816964600,9.997964599609375,8.31195068359375,3.361950159072876,0.5550000071525574
1771514220837366500,10.018366455078125,8.460000038146973,3.2539501190185547,0.8830500245094299
1771514220857764900,10.038764892578126,8.764050483703613,2.8780500888824463,0.2670000195503235
1771514220878162400,10.059162353515624,9.246000289916992,2.9770500659942627,-0.8830500245094299
1771514220898564000,10.079564208984374,8.986950874328613,2.974050045013428,-1.7190001010894775
1771514220918969000,10.099968994140625,8.616000175476074,2.9449501037597656,-2.0209500789642334
1771514220939371500,10.12037158203125,9.12405014038086,2.806950092315674,-2.272050142288208
1771514220959772700,10.140772705078126,11.199000358581545,1.9810501337051392,-1.326000094413757
1771514220980176400,10.16117626953125,11.647050857543944,1.2769500017166138,0.6000000238418579
1771514221000580600,10.18158056640625,11.070000648498535,0.400050014257431,-0.5509500503540039
1771514221020983000,10.201983154296874,11.389050483703612,1.1899501085281372,-1.3339500427246094
1771514221041382400,10.22238232421875,11.106000900268556,1.3990501165390017,-2.1670501232147217
1771514221061781200,10.24278125,11.187000274658203,1.5739500522613523,-2.389050006866455
1771514221082180900,10.263180908203124,11.932050704956056,1.26705002784729,-2.2480502128601074
1771514221102579000,10.283578857421874,11.73300075531006,0.690000057220459,-1.7860500812530518
1771514221122975700,10.303975830078125,10.480950355529783,1.0230000019073486,-0.1480500102043151
1771514221143373600,10.32437353515625,9.40095043182373,1.3480501174926758,-0.2299500107765197
1771514221163771400,10.344771484375,8.836050033569336,1.8780001401901243,-0.322950005531311
1771514221184168400,10.36516845703125,8.881950378417969,2.062050104141236,-0.4810500144958496
1771514221204565200,10.385565185546875,9.492000579833984,1.8109500408172607,-0.8089500665664673
1771514221224961000,10.4059609375,10.456950187683104,1.8780001401901243,-1.264050006866455
1771514221245357300,10.426357421875,10.43595027923584,1.915950059890747,-1.3380000591278076
1771514221265756700,10.446756591796875,9.777000427246094,1.7440500259399414,-1.264050006866455
1771514221286156500,10.467156494140625,9.373050689697266,1.6429500579833984,-1.2709500789642334
1771514221306555000,10.487554931640624,9.897000312805176,1.5109500885009766,-1.4149500131607056
1771514221326953500,10.507953369140624,10.921950340270996,1.1860500574111938,-1.4170501232147217
1771514221347352300,10.528352294921875,11.659050941467283,0.9649500250816344,-0.9480000734329224
1771514221367748900,10.548748779296876,11.671051025390623,1.0639500617980957,-0.2820000052452087
1771514221388144400,10.569144287109374,10.669950485229492,1.2049500942230225,-0.5389500260353088
1771514221408543500,10.58954345703125,9.874950408935549,1.4659500122070312,-0.912000060081482
1771514221428943000,10.609943115234374,9.46095085144043,1.7839500904083252,-1.225950002670288
1771514221449342700,10.6303427734375,8.88900089263916,2.052000045776367,-1.527000069618225
1771514221469743900,10.650743896484377,8.776050567626953,2.059950113296509,-1.6090500354766846
1771514221490144800,10.671144775390625,9.592950820922852,1.7320500612258911,-1.5349500179290771
1771514221510547500,10.69154736328125,10.15095043182373,1.5570000410079956,-1.1320500373840332
1771514221530947800,10.71194775390625,9.90195083618164,1.8370500802993772,-0.8449500203132629
1771514221551344400,10.732344482421874,9.87795066833496,1.8439500331878664,-1.4010000228881836
1771514221571741700,10.75274169921875,9.9660005569458,2.0020501613616943,-1.8840000629425049
1771514221592144000,10.773143798828125,10.086000442504885,1.8780001401901243,-1.942050099372864
1771514221612548600,10.793548583984377,9.874950408935549,1.6879501342773438,-1.954050064086914
1771514221632948700,10.81394873046875,9.861000061035156,1.5949500799179075,-1.852950096130371
1771514221653348000,10.83434814453125,10.44795036315918,1.3819500207901,-2.422950029373169
1771514221673748200,10.854748291015625,10.98900032043457,1.272000074386597,-2.7199501991271973
1771514221694143500,10.8751435546875,11.050950050354004,1.198050022125244,-2.526000022888184
1771514221714537700,10.895537841796877,10.507050514221191,1.219050049781799,-1.870050072669983
1771514221734931200,10.91593115234375,9.760050773620604,1.5349500179290771,-1.771950125694275
1771514221755326700,10.93632666015625,9.407999992370604,1.8109500408172607,-2.2579500675201416
1771514221775722000,10.956721923828123,9.616950035095217,2.035950183868408,-2.4780001640319824
1771514221796117000,10.977116943359375,9.364950180053713,2.2390501499176025,-1.908000111579895
1771514221816513800,10.997513671875,9.229050636291504,2.2579500675201416,-1.4959501028060913
1771514221836908300,11.017908203125,9.862950325012209,2.110050201416016,-1.450950026512146
1771514221857304000,11.038303955078124,10.72800064086914,1.7320500612258911,-1.3549500703811646
1771514221877703400,11.058703369140623,10.843050956726074,1.5690001249313354,-1.1299500465393066
1771514221898104600,11.0791044921875,10.290000915527344,1.830000042915344,-0.9360000491142272
1771514221918508800,11.0995087890625,9.86595058441162,2.4160501956939697,-1.1850000619888306
1771514221938913800,11.119913818359375,9.652950286865234,2.545950174331665,-1.89900004863739
1771514221959318300,11.140318359375,10.431000709533691,1.8730500936508176,-2.7940502166748047
1771514221979722500,11.160722412109376,11.331000328063965,1.6909500360488892,-2.6260502338409424
1771514222000124200,11.181124267578124,11.020050048828123,1.4389500617980957,-1.88700008392334
1771514222020523500,11.2015234375,10.302000045776367,1.207050085067749,-1.8079501390457156
1771514222040921300,11.22192138671875,10.416000366210938,1.363050103187561,-1.7880001068115234
1771514222061320400,11.242320556640625,10.074000358581545,1.6669501066207886,-1.3530000448226929
1771514222081716500,11.262716552734377,9.022950172424316,1.7530500888824463,-0.7800000309944153
1771514222102111500,11.283111572265623,8.338050842285156,1.9519500732421875,-0.4909500181674957
1771514222122507800,11.3035078125,8.31195068359375,1.8730500936508176,-1.0150500535964966
1771514222142900200,11.323900146484377,9.133049964904783,1.6500000953674316,-1.9459501504898071
1771514222163292700,11.344292724609376,10.222050666809082,2.0209500789642334,-2.0059502124786377
1771514222183688200,11.364688232421877,10.546050071716309,1.8900001049041748,-2.032950162887573
1771514222204082400,11.38508251953125,11.11305046081543,1.902000069618225,-2.1160500049591064
1771514222224477700,11.405477783203125,11.67300033569336,1.915950059890747,-2.1600000858306885
1771514222244876300,11.425876220703126,11.13705062866211,2.134050130844116,-1.972950100898743
1771514222265276200,11.446276123046877,10.108050346374512,2.584050178527832,-1.8630000352859497
1771514222285671700,11.466671630859375,9.145050048828123,3.055950164794922,-1.7239500284194946
1771514222306064000,11.48706396484375,9.022950172424316,3.151050090789795,-1.852950096130371
1771514222326455600,11.50745556640625,10.108050346374512,2.6130001544952397,-1.810050129890442
1771514222346847200,11.52784716796875,11.464950561523438,1.861050128936768,-1.8720000982284544
1771514222367241200,11.5482412109375,12.1360502243042,1.068000078201294,-1.6230000257492063
1771514222387637000,11.568636962890626,11.929950714111328,0.8359500169754028,-0.9940500259399414
1771514222408031500,11.589031494140626,10.111950874328612,1.111050009727478,-0.7110000252723694
1771514222428425200,11.60942529296875,8.317049980163574,1.7650500535964966,-1.258950114250183
1771514222448822300,11.629822265625,7.858950138092041,2.365950107574463,-2.013000011444092
1771514222469217800,11.6502177734375,8.368950843811035,2.347050189971924,-2.989950180053711
1771514222489611300,11.670611328125,9.277050018310549,1.6429500579833984,-3.711000204086304
1771514222510005500,11.691005615234374,10.051950454711914,1.305000066757202,-3.450000047683716
1771514222530398200,11.711398193359376,9.040050506591797,1.5619500875473022,-2.095050096511841
1771514222550790700,11.731790771484375,7.285050392150879,1.8750001192092896,-1.573050022125244
1771514222571184400,11.752184326171877,7.203000545501709,2.1979501247406006,-2.0370001792907715
1771514222591578600,11.77257861328125,9.061050415039062,2.284950017929077,-2.1040501594543457
1771514222611972000,11.79297216796875,9.793950080871582,3.0390000343322754,-1.4010000228881836
1771514222632364800,11.81336474609375,8.472000122070312,3.8389501571655273,-0.4810500144958496
1771514222652755700,11.833755615234375,7.978950500488281,4.509000301361084,-0.1630500108003616
1771514222673148400,11.8541484375,7.9960503578186035,4.3560004234313965,-1.4130001068115234
1771514222693543400,11.87454345703125,9.310050010681152,3.4360501766204834,-3.582000255584717
1771514222713936100,11.89493603515625,13.048050880432127,1.7820000648498535,-3.886050224304199
1771514222734328600,11.91532861328125,16.04505157470703,0.3910500109195709,-2.253000020980835
1771514222754723300,11.935723388671876,15.652950286865234,0.0100500006228685,-0.361050009727478
1771514222775118800,11.956118896484377,13.066950798034668,0.5580000281333923,0.3010500073432922
1771514222795512300,11.97651220703125,10.639050483703612,1.1620500087738037,-0.4549500346183777
1771514222815904800,11.99690478515625,8.896050453186035,1.3270500898361206,-1.4770500659942627
1771514222836296400,12.01729638671875,9.556950569152832,1.1640000343322754,-2.1499500274658203
1771514222856688400,12.0376884765625,10.759050369262695,0.9460500478744508,-2.39205002784729
1771514222877079300,12.058079345703124,9.589950561523438,0.9169500470161438,-1.9969501495361328
1771514222897471200,12.07847119140625,6.906000137329102,1.15500009059906,-1.5679501295089722
1771514222917865700,12.09886572265625,5.15595006942749,1.39395010471344,-1.3069500923156738
1771514222938261800,12.11926171875,6.040050506591797,1.0990500450134275,-1.6950000524520874
1771514222958659600,12.13965966796875,9.700950622558594,0.8380500674247742,-2.485050201416016
1771514222979058200,12.16005810546875,11.647050857543944,2.39205002784729,-1.6090500354766846
1771514222999458000,12.1804580078125,7.881000518798828,5.287050247192383,0.0420000031590461
1771514223019854300,12.200854248046875,5.5489501953125,5.245950222015381,-1.446000099182129
1771514223040246800,12.221246826171877,10.054950714111328,2.328000068664551,-5.575950145721436
1771514223060642000,12.24164208984375,16.825950622558594,-0.7840500473976135,-7.4509501457214355
1771514223081040600,12.26204052734375,20.965951919555664,-1.2889500856399536,-3.438000202178955
1771514223101439200,12.282439208984377,19.005001068115234,-0.7309500575065613,-0.286950021982193
1771514223121836800,12.3028369140625,14.03895092010498,0.6450000405311584,0.3919500112533569
1771514223142235100,12.323235107421874,9.270000457763672,1.4830501079559326,-1.1970000267028809
1771514223162633200,12.34363330078125,7.1170501708984375,2.433000087738037,-2.3080501556396484
1771514223183030500,12.364030517578126,6.313050270080566,2.5410001277923584,-2.526000022888184
1771514223203432700,12.3844326171875,6.460950374603272,2.3899500370025635,-1.759950041770935
1771514223223840300,12.40484033203125,6.430050373077393,2.151000022888184,-1.519950032234192
1771514223244246000,12.42524609375,5.989050388336182,1.9900500774383545,-1.336050033569336
1771514223264649200,12.445649169921875,6.508950233459473,2.014050006866455,-0.9619500637054444
1771514223285054000,12.466053955078126,8.005050659179688,2.131050109863281,-1.1560500860214231
1771514223305460200,12.486460205078124,9.037050247192385,2.713050127029419,-2.061000108718872
1771514223325865500,12.506865478515625,8.659049987792969,3.4360501766204834,-2.362950086593628
1771514223346272500,12.5272724609375,7.9170002937316895,3.5340001583099365,-2.131050109863281
1771514223366677500,12.547677490234374,8.569950103759766,3.223050117492676,-1.8049501180648804
1771514223387077000,12.5680771484375,10.243950843811035,3.1680002212524414,-1.7020500898361206
1771514223407480300,12.588480224609375,11.72100067138672,2.9239501953125,-2.305950164794922
1771514223427887600,12.6088876953125,12.444000244140623,2.482950210571289,-3.0430500507354736
1771514223448292400,12.629292236328125,12.339000701904297,2.524050235748291,-2.5980000495910645
1771514223468692500,12.6496923828125,10.713000297546388,2.929050207138061,-1.8580501079559328
1771514223489090300,12.67009033203125,8.901000022888184,2.8999500274658203,-1.8000000715255735
1771514223509487400,12.6904873046875,8.629950523376465,2.943000078201294,-2.0160000324249268
1771514223529884200,12.71088427734375,9.202950477600098,2.902050256729126,-1.8600001335144043
1771514223550285600,12.73128564453125,9.396000862121582,2.761050224304199,-1.4580000638961792
1771514223570695000,12.75169482421875,8.914950370788574,2.533950090408325,-0.89805006980896
1771514223591101200,12.77210107421875,8.752050399780273,2.064000129699707,-0.3160500228404999
1771514223611500800,12.792500732421876,9.301050186157228,1.6690500974655151,-0.4210500121116638
1771514223631901700,12.812901611328124,9.636000633239746,2.215050220489502,-0.5149500370025635
1771514223652305400,12.833305419921874,9.097050666809082,2.83305025100708,-0.7609500288963318
1771514223672712400,12.85371240234375,9.825000762939451,2.931000232696533,-1.8340500593185425
1771514223693119200,12.874119140625,12.346050262451172,2.281949996948242,-2.907000064849853
1771514223713526000,12.894526123046877,14.479950904846191,0.9079500436782836,-3.301950216293335
1771514223733932000,12.91493212890625,14.982000350952148,0.6660000085830688,-2.260050058364868
1771514223754336800,12.935336669921876,12.480000495910645,1.662000060081482,-0.5890500545501709
1771514223774740000,12.955739990234376,8.640000343322754,2.6959500312805176,-0.2539499998092651
1771514223795139600,12.9761396484375,7.07895040512085,3.2970001697540283,-0.703950047492981
1771514223815538200,12.9965380859375,7.795050144195557,3.30495023727417,-1.0870500802993774
1771514223835938300,13.016938232421875,8.908050537109375,2.7660000324249268,-1.0009500980377195
1771514223856338000,13.037337890625,9.025050163269045,2.086050033569336,-1.221000075340271
1771514223876737000,13.057737060546875,9.484950065612791,1.6840500831604004,-1.2450000047683716
1771514223897137700,13.0781376953125,10.528950691223145,1.5019500255584717,-1.0410000085830688
1771514223917537300,13.098537353515624,11.154000282287598,1.5019500255584717,-0.8239500522613525
1771514223937934600,13.1189345703125,11.118000984191896,1.3990501165390017,-1.2330000400543213
1771514223958331000,13.139330810546875,11.107950210571287,1.055999994277954,-1.374000072479248
1771514223978726000,13.159725830078123,11.295000076293944,0.817050039768219,-1.009950041770935
1771514223999118600,13.18011865234375,10.813950538635254,0.7570500373840332,-0.4069500267505646
1771514224019511300,13.20051123046875,10.531050682067873,0.8410500288009644,-0.2059500068426132
1771514224039904300,13.220904296875,10.24905014038086,1.0800000429153442,-0.5239500403404236
1771514224060297000,13.241296875,9.708000183105469,1.324950098991394,-1.2090001106262207
1771514224080688000,13.261688232421877,9.54705047607422,1.4710500240325928,-1.474950075149536
1771514224101079600,13.28207958984375,9.873000144958496,1.3099501132965088,-1.5630000829696655
1771514224121473000,13.30247314453125,10.266000747680664,1.2480000257492063,-1.2330000400543213
1771514224141863000,13.32286279296875,10.372950553894045,1.224000096321106,-1.1010000705718994
1771514224162256100,13.343256103515625,10.363950729370115,1.2340500354766846,-1.128000020980835
1771514224182653400,13.3636533203125,10.534050941467283,1.2600001096725464,-0.7969500422477722
1771514224203048700,13.384048583984375,10.324950218200684,1.3990501165390017,-0.361050009727478
1771514224223445200,13.4044453125,9.91800022125244,1.6260000467300415,-0.0649500042200088
1771514224243840300,13.42484033203125,9.442049980163574,1.8370500802993772,-0.325950026512146
1771514224264230700,13.445230712890623,9.258000373840332,1.957050085067749,-0.3900000154972076
1771514224284621300,13.465621337890624,9.789000511169434,1.801050066947937,-0.3570000231266022
1771514224305013500,13.486013427734376,10.390050888061523,1.5090000629425049,-0.2299500107765197
1771514224325407700,13.50640771484375,10.87605094909668,1.2690000534057615,-0.4380000233650207
1771514224345803500,13.526803466796874,10.893000602722168,1.2460500001907349,-0.6340500116348267
1771514224366197000,13.547197021484376,10.7760009765625,1.2649500370025637,-0.6199500560760498
1771514224386589700,13.567589599609375,10.66800022125244,1.26705002784729,-0.7060500383377075
1771514224406982700,13.587982666015623,10.467000961303713,1.377000093460083,-0.547950029373169
1771514224427379000,13.60837890625,9.69105052947998,1.5640500783920288,-0.4210500121116638
1771514224447778300,13.6287783203125,9.337050437927246,1.7940000295639038,-0.6850500106811523
1771514224468178700,13.6491787109375,9.406050682067873,2.0310001373291016,-0.9499500393867492
1771514224488577500,13.66957763671875,9.370050430297852,2.139000177383423,-1.2090001106262207
1771514224508974000,13.68997412109375,9.61905002593994,1.7910001277923584,-1.2430500984191897
1771514224529371600,13.71037158203125,10.123950004577637,1.3699500560760498,-1.1299500465393066
1771514224549770800,13.730770751953123,10.5600004196167,0.8070000410079956,-1.1970000267028809
1771514224570172000,13.751171875,11.179950714111328,0.3360000252723694,-0.8760000467300415
1771514224590574000,13.771573974609376,11.713950157165527,0.1319999992847442,-0.6340500116348267
1771514224610975000,13.79197509765625,11.64495086669922,0.1030500084161758,-0.7639500498771667
1771514224631374800,13.812374755859375,11.008050918579102,0.1729500144720077,-1.116000056266785
1771514224651770400,13.832770263671875,10.27305030822754,0.5890500545501709,-1.0750499963760376
1771514224672160300,13.85316015625,9.346050262451172,1.0249500274658203,-0.9600000381469728
1771514224692549600,13.873549560546875,8.131950378417969,1.606950044631958,-1.281000018119812
1771514224712941800,13.89394189453125,7.783050537109375,1.9210500717163088,-1.8889501094818115
1771514224733335300,13.914335205078125,8.5489501953125,1.839000105857849,-2.4280500411987305
1771514224753727500,13.9347275390625,9.492000579833984,1.5259500741958618,-2.2290000915527344
1771514224774119400,13.955119384765624,10.030950546264648,1.0969500541687012,-2.0659501552581787
1771514224794512000,13.975511962890623,10.645950317382812,0.9850500226020812,-1.8600001335144043
1771514224814907600,13.99590771484375,11.104050636291504,1.0060499906539917,-1.4719500541687012
1771514224835306200,14.01630615234375,11.02695083618164,1.0039499998092651,-1.3099501132965088
1771514224855703300,14.036703369140625,10.813950538635254,1.116000056266785,-1.4010000228881836
1771514224876096300,14.05709619140625,10.609950065612791,1.2769500017166138,-1.3000500202178955
1771514224896486100,14.077486083984375,10.32300090789795,1.2460500001907349,-1.222950100898743
1771514224916876300,14.097876220703125,10.177050590515137,0.9820500612258912,-1.4650501012802124
1771514224937268200,14.118268310546876,11.01300048828125,0.5869500041007996,-1.8460501432418823
1771514224957660000,14.138659912109375,11.869950294494627,0.2329500168561935,-1.7530500888824463
1771514224978053000,14.15905322265625,12.00105094909668,-0.067950002849102,-1.4410500526428225
1771514224998448400,14.179448486328123,11.257050514221191,-0.0540000014007091,-1.2880500555038452
1771514225018841900,14.199841796875,9.805950164794922,0.348000019788742,-1.4530500173568726
1771514225039233500,14.220233642578124,8.668950080871582,0.6970500349998474,-1.8750001192092896
1771514225059623700,14.240623779296875,8.010000228881836,1.0969500541687012,-2.4060001373291016
1771514225080013600,14.261013671875,7.600950241088867,1.423050045967102,-2.2290000915527344
1771514225100403700,14.28140380859375,7.789950370788574,1.6290000677108765,-1.8079501390457156
1771514225120792300,14.301792236328126,8.331000328063965,1.3459500074386597,-1.5870001316070557
1771514225141181000,14.322180908203125,9.418050765991213,1.0369499921798706,-1.374000072479248
1771514225161572000,14.342572021484376,9.86595058441162,0.5989500284194946,-1.53000009059906
1771514225181965000,14.362965087890624,10.28505039215088,0.4669500291347503,-2.362950086593628
1771514225202359000,14.383359130859375,11.391000747680664,0.3760500252246856,-2.5669500827789307
1771514225222753800,14.40375390625,12.231000900268556,-0.003000000026077,-2.230950117111206
1771514225243148800,14.424148681640624,12.289051055908203,-0.2020500153303146,-1.6639500856399536
1771514225263543800,14.444543701171876,11.898000717163086,-0.1180500090122222,-1.4130001068115234
1771514225283936000,14.46493603515625,11.00295066833496,0.4240500330924988,-1.645050048828125
1771514225304327200,14.4853271484375,10.28505039215088,0.9169500470161438,-2.0370001792907715
1771514225324723000,14.505722900390625,9.862950325012209,1.0830000638961792,-2.2669501304626465
1771514225345122000,14.5261220703125,10.072050094604492,1.0639500617980957,-2.4160501956939697
1771514225365519600,14.54651953125,10.021050453186035,0.8070000410079956,-2.344050168991089
1771514225385913900,14.566913818359374,10.231950759887695,0.4909500181674957,-2.284050226211548
1771514225406304300,14.58730419921875,10.75605010986328,0.2179500162601471,-1.6350001096725464
1771514225426694700,14.607694580078125,10.7160005569458,0.1489500105381012,-0.7920000553131104
1771514225447089400,14.62808935546875,10.56195068359375,0.1800000071525573,-0.6270000338554382
1771514225467486200,14.648486328125,10.230000495910645,0.3930000066757202,-1.0049999952316284
1771514225487883000,14.668883056640626,9.883050918579102,0.7240500450134277,-1.3620001077651978
1771514225508278300,14.6892783203125,9.142950057983398,0.9390000700950624,-1.5180001258850098
1771514225528668400,14.70966845703125,9.10395050048828,1.1040000915527344,-2.013000011444092
1771514225549056800,14.730056884765624,9.75795078277588,1.1950500011444092,-2.2980000972747803
1771514225569446400,14.7504462890625,10.58400058746338,0.7909500598907471,-2.7460501194000244
1771514225589839400,14.77083935546875,11.737950325012209,0.364050030708313,-3.033000230789185
1771514225610232600,14.791232666015626,12.397050857543944,0.1680000126361847,-2.5380001068115234
1771514225630626600,14.81162646484375,11.79300022125244,0.3930000066757202,-1.89900004863739
1771514225651022800,14.83202294921875,10.771050453186035,0.6349500417709351,-1.7670000791549685
1771514225671415600,14.85241552734375,10.621950149536133,0.8820000290870667,-1.828950047492981
1771514225691804000,14.872803955078124,10.534050941467283,0.9130500555038452,-1.9390500783920288
1771514225712191000,14.89319091796875,10.26300048828125,0.7399500608444214,-2.131050109863281
1771514225732579000,14.9135791015625,9.811050415039062,0.9460500478744508,-2.1880500316619877
1771514225752971500,14.933971435546876,9.298050880432127,1.0180500745773315,-2.0590500831604004
1771514225773365000,14.954364990234374,9.331950187683104,1.1740500926971436,-1.7760001420974731
1771514225793756400,14.97475634765625,9.91800022125244,1.210050106048584,-1.759950041770935
1771514225814146300,14.995146240234376,9.849000930786133,1.059000015258789,-1.89900004863739
1771514225834539000,15.0155390625,9.802950859069824,0.7069500088691711,-2.4760501384735107
1771514225854933200,15.035933349609374,10.455000877380373,0.4770000278949737,-2.650050163269043
1771514225875320800,15.05632080078125,10.885950088500977,0.7000500559806824,-1.932000041007996
1771514225895706400,15.076706298828125,10.230000495910645,0.9510000348091124,-1.5390000343322754
1771514225916094000,15.097093994140623,9.835050582885742,1.0440000295639038,-2.155050039291382
1771514225936482800,15.11748291015625,10.468950271606444,0.8820000290870667,-2.683950185775757
1771514225956874200,15.137874267578123,11.368950843811035,0.283050000667572,-2.5039501190185547
1771514225977268500,15.1582685546875,12.034950256347656,-0.1690500080585479,-1.8840000629425049
1771514225997660000,15.178659912109374,12.01305103302002,-0.2160000056028366,-1.6060501337051392
1771514226018049800,15.1990498046875,11.017050743103027,0.0649500042200088,-1.76895010471344
1771514226038441000,15.21944091796875,10.13895034790039,0.5320500135421753,-1.924950122833252
1771514226058833700,15.239833740234374,9.72705078125,0.7090500593185425,-2.032950162887573
1771514226079227100,15.26022705078125,9.97800064086914,0.7690500617027283,-1.9560000896453855
1771514226099619800,15.280619873046875,10.048050880432127,0.7669500112533569,-2.0400002002716064
1771514226120013800,15.301013916015624,9.6739501953125,0.90105003118515,-2.332050085067749
1771514226140407000,15.321406982421877,9.475050926208496,0.9799500703811646,-2.5879502296447754
1771514226160800300,15.34180029296875,9.69105052947998,0.831000030040741,-2.502000093460083
1771514226181194800,15.36219482421875,10.408950805664062,0.4669500291347503,-2.0659501552581787
1771514226201588500,15.38258837890625,11.008050918579102,0.1469999998807907,-1.5250500440597534
1771514226221980400,15.40298046875,10.68000030517578,0.2569500207901001,-0.7900500297546387
1771514226242373400,15.423373291015626,10.054950714111328,0.6349500417709351,-0.6370500326156616
1771514226262767000,15.44376708984375,9.744000434875488,0.8290500640869141,-0.8880000710487366
1771514226283159300,15.4641591796875,10.306050300598145,0.4669500291347503,-1.221000075340271
1771514226303549700,15.4845498046875,10.98900032043457,0.3430500030517578,-1.360050082206726
1771514226323940600,15.504940673828123,11.017050743103027,0.3910500109195709,-1.492050051689148
1771514226344335000,15.525335205078123,10.194000244140623,0.6210000514984131,-1.8000000715255735
1771514226364727600,15.5457275390625,9.95895004272461,0.7930500507354736,-2.3179500102996826
1771514226385120300,15.566120361328124,10.843050956726074,0.6970500349998474,-2.3560500144958496
1771514226405518000,15.58651806640625,11.569950103759766,0.5149500370025635,-2.02305006980896
1771514226425914000,15.6069140625,11.62095069885254,0.3450000286102295,-1.8960001468658447
1771514226446307600,15.6273076171875,10.993050575256348,0.3049500286579132,-1.968000054359436
1771514226466705200,15.647705078125,10.962000846862791,0.3360000252723694,-2.233950138092041
1771514226487102500,15.6681025390625,11.104050636291504,0.3000000119209289,-2.11395001411438
1771514226507495700,15.68849560546875,10.58595085144043,0.2610000073909759,-2.088000059127808
1771514226527887400,15.708887451171876,10.336950302124023,0.2329500168561935,-2.313000202178955
1771514226548278800,15.72927880859375,9.97605037689209,0.3400500118732452,-2.389050006866455
1771514226568670700,15.749670654296876,9.289050102233888,0.690000057220459,-2.1760501861572266
1771514226589064000,15.77006396484375,9.41100025177002,0.7519500255584717,-2.064000129699707
1771514226609458200,15.790458251953124,9.492000579833984,0.7639500498771667,-1.9969501495361328
1771514226629851000,15.810850830078126,9.48705005645752,0.6660000085830688,-1.6879501342773438
1771514226650241000,15.831240966796877,9.4350004196167,0.5130000114440918,-1.3930500745773315
1771514226670632400,15.851632568359374,9.849000930786133,0.3190500140190124,-1.1970000267028809
1771514226691027200,15.872027099609374,10.777950286865234,0.19200000166893,-1.222950100898743
1771514226711417900,15.89241796875,11.520000457763672,0.1990500092506408,-1.3069500923156738
1771514226731804700,15.9128046875,11.08905029296875,0.4360500276088714,-1.1950500011444092
1771514226752193500,15.933193603515624,10.371000289916992,0.9679500460624696,-1.2160500288009644
1771514226772587500,15.95358740234375,10.099950790405272,1.4040000438690186,-1.699950098991394
1771514226792983800,15.97398388671875,10.456950187683104,1.7839500904083252,-1.9369500875473025
1771514226813377000,15.994376953125,10.59795093536377,1.957050085067749,-1.7860500812530518
1771514226833769700,16.014769775390626,10.170000076293944,2.155050039291382,-1.4580000638961792
1771514226854162700,16.03516259765625,9.681000709533691,2.434950113296509,-1.321950078010559
1771514226874553300,16.05555322265625,9.64995002746582,2.731950044631958,-1.1830500364303589
1771514226894942500,16.0759423828125,10.117050170898438,2.64900016784668,-0.8160000443458557
1771514226915333400,16.09633349609375,10.788000106811523,2.2800002098083496,-0.8830500245094299
1771514226935725300,16.116725341796876,11.206950187683104,1.9519500732421875,-1.0609500408172607
1771514226956115200,16.137115234375,10.926000595092772,1.6380001306533811,-0.8089500665664673
1771514226976504300,16.15750439453125,10.81095027923584,1.540050029754639,-0.6180000305175781
1771514226996897800,16.177897705078124,10.900050163269045,1.3990501165390017,-0.8710500597953796
1771514227017291800,16.198291748046874,11.218950271606444,1.0279500484466553,-1.1710500717163086
1771514227037682200,16.21868212890625,11.511000633239746,0.3520500063896179,-1.1989500522613523
1771514227058071800,16.23907177734375,11.917950630187988,-0.0540000014007091,-0.7680000066757202
1771514227078462200,16.259462158203124,11.185050964355469,-0.2620500028133392,-0.3930000066757202
1771514227098852900,16.279852783203125,10.219950675964355,-0.2980500161647796,-0.6010500192642212
1771514227119242500,16.300242431640626,9.90195083618164,-0.2670000195503235,-1.0030500888824463
1771514227139633000,16.3206328125,10.266000747680664,-0.5010000467300415,-1.0249500274658203
1771514227160024000,16.341024169921877,10.312950134277344,-0.4510500133037567,-1.125
1771514227180414700,16.361414794921874,9.645000457763672,-0.3390000164508819,-1.3410000801086426
1771514227200802600,16.381802490234374,8.938950538635254,0.2449500113725662,-1.7860500812530518
1771514227221188600,16.402188720703126,8.745000839233398,0.9030000567436218,-2.69100022315979
1771514227241576700,16.42257666015625,9.442049980163574,1.432050108909607,-3.988950252532959
1771514227261966600,16.442966552734376,10.333050727844238,1.3480501174926758,-4.2900004386901855
1771514227282359800,16.46335986328125,10.861950874328612,0.8100000619888306,-3.658050060272217
1771514227302756900,16.4837568359375,11.056050300598145,0.6210000514984131,-2.974050045013428
1771514227323154700,16.50415478515625,10.90695095062256,0.5800500512123108,-2.5789501667022705
1771514227343550500,16.524550537109373,10.359000205993652,0.7860000133514404,-2.2290000915527344
1771514227363943000,16.54494287109375,9.334050178527832,1.39395010471344,-2.0350501537323
1771514227384335600,16.565335693359376,8.499000549316406,2.1070501804351807,-2.11395001411438
1771514227404730400,16.58573046875,8.592000007629395,2.6100001335144043,-2.434950113296509
1771514227425127200,16.606127197265625,9.223950386047363,2.886000156402588,-2.619000196456909
1771514227445524200,16.626524169921876,9.316950798034668,2.842050075531006,-2.7769501209259038
1771514227465915600,16.64691552734375,9.760050773620604,2.5069501399993896,-2.799000024795532
1771514227486310100,16.66731005859375,10.912050247192385,2.056950092315674,-2.124000072479248
1771514227506709200,16.687709228515626,11.599050521850586,1.9519500732421875,-1.225950002670288
1771514227527111200,16.708111083984374,12.037050247192385,2.0500500202178955,-1.125
1771514227547513600,16.728513671875,11.403000831604004,2.0719501972198486,-1.0939500331878662
1771514227567914200,16.748914306640625,10.099950790405272,2.323050022125244,-0.5650500059127808
1771514227588317200,16.769317138671877,9.94005012512207,2.263050079345703,-0.3780000209808349
1771514227608720100,16.78972021484375,10.945950508117676,1.8229501247406008,-0.1630500108003616
1771514227629122000,16.8101220703125,11.158950805664062,1.516050100326538,-0.2179500162601471
1771514227649523000,16.83052294921875,10.366050720214844,1.53000009059906,-0.51705002784729
1771514227669919700,16.850919677734375,10.159950256347656,1.545000076293945,-1.1749500036239624
1771514227690315300,16.871315185546877,10.303950309753418,1.5970500707626345,-1.6180500984191897
1771514227710711300,16.891711181640623,10.56705093383789,1.6120500564575195,-1.5970500707626345
1771514227731106000,16.91210595703125,10.336950302124023,1.839000105857849,-1.4800500869750977
1771514227751499800,16.932499755859375,10.24905014038086,1.5349500179290771,-1.870050072669983
1771514227771891200,16.95289111328125,11.07705020904541,1.297950029373169,-2.3989500999450684
1771514227792280600,16.973280517578125,11.70900058746338,1.1020500659942627,-2.374950170516968
1771514227812671000,16.9936708984375,10.936050415039062,1.1209501028060913,-1.7050501108169556
1771514227833062100,17.014062255859375,9.781949996948242,1.3920000791549685,-1.474950075149536
1771514227853453800,17.034453857421877,8.764050483703613,1.89900004863739,-1.659000039100647
1771514227873847000,17.054846923828126,8.154000282287598,2.64900016784668,-2.013000011444092
1771514227894241800,17.07524169921875,7.788000583648682,3.052950143814087,-2.143050193786621
1771514227914639400,17.095639404296875,7.890000343322754,3.0990002155303955,-2.064000129699707
1771514227935038000,17.116037841796874,8.83905029296875,2.6100001335144043,-2.3580000400543213
1771514227955433000,17.136432861328124,9.805950164794922,2.0020501613616943,-2.370000123977661
1771514227975830800,17.156830810546875,10.986000061035156,1.576050043106079,-2.3299500942230225
1771514227996227800,17.177227783203126,11.33595085144043,1.7080501317977903,-1.798050045967102
1771514228016620500,17.19762060546875,10.660950660705566,1.771950125694275,-1.8409501314163208
1771514228037014300,17.21801416015625,10.312950134277344,2.1859500408172607,-2.2510499954223637
1771514228057406200,17.23840625,10.378050804138184,2.4280500411987305,-2.485050201416016
1771514228077795800,17.2587958984375,10.74000072479248,1.8079501390457156,-2.337000131607056
1771514228098185700,17.279185791015625,11.6089506149292,1.2139500379562378,-1.8750001192092896
1771514228118579200,17.2995791015625,11.57805061340332,1.15500009059906,-1.2400500774383545
1771514228138975200,17.319975341796876,10.066950798034668,1.3410000801086426,-0.8670000433921814
1771514228159369000,17.340368896484375,8.985000610351562,1.6429500579833984,-0.9580500721931458
1771514228179761400,17.360761474609376,9.049050331115724,1.855950117111206,-1.2090001106262207
1771514228200156000,17.381156005859374,9.202950477600098,1.9060500860214236,-1.1920500993728638
1771514228220551000,17.401551025390624,9.15195083618164,1.696050047874451,-1.0630500316619873
1771514228240947500,17.421947509765626,9.373050689697266,1.806000113487244,-0.4690500199794769
1771514228261346300,17.44234619140625,8.818950653076172,2.4910500049591064,0.0420000031590461
1771514228281739800,17.46273974609375,8.167950630187988,2.493000030517578,-0.4879500269889831
1771514228302132000,17.483132080078125,11.110950469970703,1.0800000429153442,-1.908000111579895
1771514228322530300,17.5035302734375,15.154951095581056,0.1319999992847442,-1.978050112724304
1771514228342930700,17.5239306640625,14.389050483703612,0.111000008881092,-0.6079500317573547
1771514228363328300,17.544328369140626,9.094950675964355,1.6090500354766846,0.598050057888031
1771514228383722000,17.564721923828124,5.11305046081543,4.5329999923706055,0.8419500589370728
1771514228404118000,17.585117919921874,4.81095027923584,5.028000354766846,-0.4669500291347503
1771514228424517000,17.60551708984375,7.44795036315918,3.5029501914978027,-3.4069502353668213
1771514228444912400,17.625912353515623,12.169050216674805,1.2340500354766846,-3.949950218200684
1771514228465306400,17.646306396484373,15.933000564575195,-0.76500004529953,-1.225950002670288
1771514228485702400,17.666702392578124,14.797950744628906,-0.3859500288963318,1.8090001344680784
1771514228506099200,17.68709912109375,10.785000801086426,0.2520000040531158,1.5310500860214231
1771514228526493700,17.70749365234375,9.7339506149292,1.240950107574463,-0.1170000061392784
1771514228546886400,17.727886474609374,9.949950218200684,1.363050103187561,-1.0009500980377195
1771514228567281000,17.748281005859376,9.817950248718262,0.7399500608444214,-1.1920500993728638
1771514228587677700,17.768677734375,9.98805046081543,0.111000008881092,-1.1539500951766968
1771514228608077600,17.78907763671875,9.610050201416016,-0.0319500006735324,-0.8809500336647034
1771514228628474400,17.809474365234376,8.27400016784668,0.1819500029087066,-1.0369499921798706
1771514228648863000,17.829863037109376,8.556000709533691,0.1849500089883804,-1.6950000524520874
1771514228669250600,17.85025048828125,9.96405029296875,-0.0150000005960464,-1.9969501495361328
1771514228689643500,17.8706435546875,11.395950317382812,-0.527999997138977,-1.972950100898743
1771514228710038800,17.891038818359377,10.582050323486328,0.3120000064373016,-0.2680500149726867
1771514228730432000,17.911431884765626,8.659049987792969,2.682000160217285,1.4880000352859497
1771514228750825200,17.9318251953125,7.657950401306152,4.192950248718262,0.9810000658035278
1771514228771221200,17.95222119140625,8.332950592041016,5.005050182342529,0.3420000076293945
1771514228791620400,17.972620361328126,9.814950942993164,3.1440000534057617,-2.7460501194000244
1771514228812019200,17.993019287109377,13.59105110168457,0.9270000457763672,-4.255050182342529
1771514228832415500,18.01341552734375,16.219951629638672,-1.045050024986267,-1.9579501152038572
1771514228852810000,18.03381005859375,14.266050338745115,-0.9040500521659852,0.9109500646591188
1771514228873202000,18.054201904296875,9.045000076293944,0.3979500234127044,0.6310500502586365
1771514228893591300,18.07459130859375,6.990000247955322,1.861050128936768,-1.1850000619888306
1771514228913980400,18.09498046875,11.122950553894045,1.123050093650818,-2.437050104141236
1771514228934372600,18.11537255859375,14.05095100402832,0.4050000309944153,-1.602000117301941
1771514228954768100,18.13576806640625,11.757000923156738,0.1129500046372413,-0.5410500168800354
1771514228975162600,18.15616259765625,9.789000511169434,-0.2070000171661377,-1.3930500745773315
1771514228995554000,18.176553955078123,10.515000343322754,-0.2710500061511993,-2.830050230026245
1771514229015944700,18.19694482421875,10.372950553894045,-0.492000013589859,-2.907000064849853
1771514229036334800,18.2173349609375,8.36205005645752,-0.1690500080585479,-1.812000036239624
1771514229056723700,18.2377236328125,6.556950092315674,0.3760500252246856,-1.0440000295639038
1771514229077111000,18.25811108398437,7.045050144195557,1.924950122833252,-0.5629500150680542
1771514229097495300,18.27849536132813,8.194950103759766,3.8650500774383545,-0.322950005531311
1771514229117875500,18.29887548828125,8.628000259399414,3.724050283432007,-1.963050127029419
1771514229138256600,18.31925659179688,9.315000534057615,2.955000162124634,-3.1909501552581787
1771514229158639000,18.33963916015625,11.104050636291504,2.064000129699707,-2.932950258255005
1771514229179018500,18.3600185546875,13.2610502243042,1.3150500059127808,-1.7310000658035278
1771514229199400400,18.380400390625,13.219950675964355,1.1500500440597534,-0.5790000557899475
1771514229219785200,18.40078515625,12.010951042175291,1.8919501304626465,-0.5239500403404236
1771514229240167000,18.4211669921875,10.486050605773926,2.943000078201294,-1.350000023841858
1771514229260547600,18.441547607421874,8.910000801086426,3.4459502696990967,-2.0299501419067383
1771514229280930600,18.4619306640625,9.418050765991213,2.823000192642212,-2.382000207901001
1771514229301316000,18.48231616210937,10.258050918579102,1.9590001106262207,-1.8169500827789309
1771514229321703000,18.50270288085937,10.360950469970703,1.3440001010894775,-0.6970500349998474
1771514229342092000,18.523092041015627,9.085050582885742,1.545000076293945,0.4300500154495239
1771514229362480000,18.54348022460937,7.6870503425598145,2.206050157546997,0.76500004529953
1771514229382870800,18.563870849609376,7.861950397491455,2.91195011138916,0.7170000076293945
1771514229403263200,18.58426318359375,9.255000114440918,3.120000123977661,0.7410000562667847
1771514229423655200,18.6046552734375,9.616950035095217,2.557950019836426,0.2770500183105469
1771514229444045000,18.625045166015624,9.526050567626951,2.184000015258789,-0.3730500042438507
1771514229464435500,18.645435546875,10.075950622558594,1.831950068473816,-1.4560500383377075
1771514229484830500,18.66583056640625,11.5420503616333,1.8780001401901243,-1.7239500284194946
1771514229505229300,18.686229248046875,12.067950248718262,1.8730500936508176,-0.6510000228881836
1771514229525627600,18.706627685546877,11.020050048828123,2.143050193786621,0.4249500334262848
1771514229546021000,18.72702124023437,10.294050216674805,2.8999500274658203,0.4830000102519989
1771514229566413800,18.747413818359377,9.712950706481934,3.06000018119812,-0.6889500617980957
1771514229586809300,18.767809326171875,10.23705005645752,2.746950149536133,-1.5870001316070557
1771514229607204400,18.788204345703125,11.63295078277588,1.806000113487244,-1.1989500522613523
1771514229627596000,18.808595947265623,12.037050247192385,1.0849500894546509,-0.0790500044822692
1771514229647986000,18.82898583984375,10.336950302124023,1.2139500379562378,0.753000020980835
1771514229668375300,18.849375244140624,8.314050674438477,1.870050072669983,0.8130000233650208
1771514229688766200,18.86976611328125,7.572000503540039,2.625000238418579,0.556950032711029
1771514229709159400,18.890159423828123,7.993050575256348,3.241950035095215,0.8730000257492065
1771514229729553200,18.91055322265625,8.074950218200684,3.4960501194000244,1.36395001411438
1771514229749943800,18.93094384765625,8.206950187683105,2.806950092315674,0.5400000214576721
1771514229770336000,18.9513359375,10.146000862121582,1.662000060081482,-1.1640000343322754
1771514229790731500,18.9717314453125,13.171950340270996,1.2529500722885132,-1.6380001306533811
1771514229811127000,18.992126953125,13.855051040649414,0.9970500469207764,-0.5460000038146973
1771514229831524000,19.012524169921875,10.87605094909668,1.5109500885009766,0.6600000262260437
1771514229851923500,19.03292333984375,8.551050186157227,2.1529500484466557,0.6310500502586365
1771514229872322000,19.053322021484377,8.203949928283691,2.9449501037597656,0.0760500058531761
1771514229892719000,19.073718994140624,9.154950141906738,3.0390000343322754,-0.8830500245094299
1771514229913114000,19.094114013671877,10.609950065612791,2.434950113296509,-1.717050075531006
1771514229933507000,19.114507080078123,11.704950332641602,1.321950078010559,-1.432050108909607
1771514229953901300,19.1349013671875,12.328950881958008,0.6490500569343567,-0.3180000185966491
1771514229974298600,19.155298583984376,11.62095069885254,0.8790000677108765,0.8160000443458557
1771514229994697500,19.175697509765627,9.763050079345703,1.2529500722885132,0.6049500107765198
1771514230015098400,19.196098388671874,8.962950706481934,2.0020501613616943,-0.0790500044822692
1771514230035500300,19.216500244140622,9.067950248718262,2.395050048828125,-0.8329500555992126
1771514230055901000,19.23690087890625,9.15195083618164,2.4210000038146973,-1.141950011253357
1771514230076298200,19.25729833984375,9.241050720214844,2.0400002002716064,-0.8860500454902649
1771514230096695600,19.277695556640627,10.057050704956056,1.6429500579833984,-0.8020500540733337
1771514230117090000,19.298090087890625,11.02500057220459,1.4610000848770142,-1.152000069618225
1771514230137482200,19.31848217773437,11.797950744628906,1.380000114440918,-1.4869500398635864
1771514230157877500,19.33887744140625,12.205050468444824,1.321950078010559,-1.4239500761032104
1771514230178275600,19.359275634765623,11.439000129699709,1.27905011177063,-1.1470500230789185
1771514230198673400,19.37967333984375,10.029000282287598,1.437000036239624,-0.8329500555992126
1771514230219067000,19.40006689453125,8.974950790405273,1.861050128936768,-0.6079500317573547
1771514230239456500,19.42045654296875,8.410050392150879,2.39205002784729,-0.5839500427246094
1771514230259845000,19.44084521484375,8.302050590515137,3.043950080871582,-0.6919500231742859
1771514230280234500,19.461234375,8.38800048828125,3.453000068664551,-0.6100500226020813
1771514230300626400,19.48162646484375,8.79104995727539,3.412050247192383,-0.7849500179290771
1771514230321020200,19.502020263671877,9.648000717163086,2.9479501247406006,-0.9529500603675842
1771514230341414400,19.522414306640623,10.444950103759766,2.2729501724243164,-0.8620500564575195
1771514230361807600,19.5428076171875,10.962000846862791,1.9210500717163088,-0.5239500403404236
1771514230382203100,19.563203125,11.178000450134276,1.590000033378601,-0.4450500309467315
1771514230402600200,19.58360009765625,11.353050231933594,1.4350500106811523,-0.5029500126838684
1771514230422994400,19.603994384765624,11.11305046081543,1.4730000495910645,-0.2749500274658203
1771514230443385300,19.62438525390625,10.302000045776367,1.6240500211715698,-0.1579500138759613
1771514230463774000,19.64477392578125,9.55905055999756,1.8079501390457156,-0.322950005531311
1771514230484161000,19.6651611328125,9.592950820922852,1.8900001049041748,-0.6700500249862671
1771514230504549600,19.685549560546875,9.69795036315918,1.831950068473816,-0.687000036239624
1771514230524942600,19.705942626953124,10.135950088500977,1.5970500707626345,-0.7279500365257263
1771514230545340200,19.726340087890627,10.53600025177002,1.4010000228881836,-0.5269500017166138
1771514230565735200,19.746735107421877,10.39995002746582,1.237950086593628,-0.2779500186443329
1771514230586122800,19.767122802734374,10.282050132751465,1.3440001010894775,-0.4050000309944153
1771514230606509600,19.78750952148437,10.177050590515137,1.64805006980896,-0.7279500365257263
1771514230626899000,19.80789892578125,9.814950942993164,2.0719501972198486,-0.5890500545501709
1771514230647289900,19.82828979492188,9.282000541687012,2.470950126647949,-0.2350500077009201
1771514230667680500,19.84868041992188,9.133049964904783,2.722950220108032,-0.2419500052928924
1771514230688069000,19.869069091796877,9.391950607299805,3.004950046539306,-0.4860000312328338
1771514230708455400,19.889455322265626,9.684000015258787,3.1939501762390137,-0.9859500527381896
1771514230728842500,19.909842529296878,10.15095043182373,3.49905014038086,-1.450950026512146
1771514230749232400,19.930232421875,10.962000846862791,3.20205020904541,-1.8199501037597656
1771514230769624600,19.95062451171875,11.688000679016112,2.686950206756592,-1.647000074386597
1771514230790020900,19.971020751953127,11.83905029296875,2.064000129699707,-1.3020000457763672
1771514230810419500,19.99141943359375,11.44800090789795,1.746000051498413,-1.0320000648498535
1771514230830815200,20.01181518554688,10.741950035095217,1.7820000648498535,-1.1470500230789185
1771514230851213300,20.03221337890625,10.31100082397461,1.8250501155853271,-1.2780001163482666
1771514230871613000,20.05261303710937,9.98805046081543,1.831950068473816,-1.3840500116348269
1771514230892010500,20.07301049804688,9.808050155639648,1.602000117301941,-1.1920500993728638
1771514230912406300,20.09340625,9.135000228881836,1.5420000553131104,-0.9409500360488892
1771514230932802600,20.113802490234374,8.797950744628906,1.5829501152038574,-1.2019500732421875
1771514230953197300,20.134197265625,8.920050621032715,1.830000042915344,-1.4560500383377075
1771514230973588000,20.154587890625,9.502050399780272,1.9590001106262207,-1.7959500551223757
1771514230993979000,20.174978759765622,9.838950157165527,1.818000078201294,-2.0370001792907715
1771514231014374100,20.1953740234375,9.71505069732666,1.8229501247406008,-1.675950050354004
1771514231034772500,20.2157724609375,9.768000602722168,1.6210501194000244,-1.585050106048584
1771514231055170000,20.236170166015626,10.440000534057615,1.4850000143051147,-1.6780500411987305
1771514231075569000,20.25656884765625,10.933950424194336,1.3990501165390017,-1.8820500373840328
1771514231095964200,20.276964111328127,10.88295078277588,1.3579500913619995,-1.7530500888824463
1771514231116358100,20.29735815429688,10.606050491333008,1.4160000085830688,-1.659000039100647
1771514231136756000,20.317755859375,10.099950790405272,1.5349500179290771,-1.6639500856399536
1771514231157154300,20.338154296875,9.70305061340332,1.815000057220459,-1.6090500354766846
1771514231177549300,20.35854931640625,9.418050765991213,1.9690500497817995,-1.489050030708313
1771514231197940700,20.37894067382813,9.910950660705566,1.9470001459121704,-1.5750000476837158
1771514231218334200,20.399334228515624,10.483050346374512,1.6210501194000244,-1.3669500350952148
1771514231238731300,20.419731201171874,10.665000915527344,1.39395010471344,-1.0960500240325928
1771514231259127000,20.440126953125,10.009050369262695,1.4730000495910645,-0.8209500312805176
1771514231279520500,20.4605205078125,9.850950241088867,1.662000060081482,-1.081950068473816
1771514231299912400,20.480912353515624,10.279950141906738,1.9759501218795776,-1.1350500583648682
1771514231320306400,20.50130639648437,10.147950172424316,2.1289501190185547,-1.207050085067749
1771514231340703000,20.521702880859376,9.993000030517578,2.1979501247406006,-1.3620001077651978
1771514231361098000,20.542097900390623,10.26300048828125,2.2300500869750977,-1.4820001125335691
1771514231381491700,20.56249169921875,10.27305030822754,2.524050235748291,-1.65405011177063
1771514231401885000,20.582885009765626,9.96405029296875,2.644050121307373,-1.812000036239624
1771514231422279700,20.60327978515625,9.862950325012209,2.7400500774383545,-1.4680501222610474
1771514231442676000,20.623676025390623,10.29900074005127,2.644050121307373,-1.5420000553131104
1771514231463070500,20.644070556640624,10.99095058441162,2.4810001850128174,-1.812000036239624
1771514231483464200,20.66446411132813,12.009000778198242,2.035950183868408,-2.1600000858306885
1771514231503858700,20.684858642578124,12.12795066833496,1.7389501333236694,-1.647000074386597
1771514231524253700,20.70525366210937,10.552950859069824,1.8580501079559328,-1.1779500246047974
1771514231544649700,20.725649658203125,9.334050178527832,1.9330500364303589,-1.2430500984191897
1771514231565045000,20.746044921875,10.242000579833984,1.7530500888824463,-1.5349500179290771
1771514231585439200,20.766439208984377,11.67300033569336,1.3870500326156616,-1.234950065612793
1771514231605838300,20.78683837890625,11.259000778198242,1.1350500583648682,-0.9169500470161438
1771514231626240500,20.807240478515624,9.922950744628906,1.5139501094818115,-1.0459500551223757
1771514231646637800,20.82763793945313,9.229050636291504,1.9300501346588133,-1.5870001316070557
1771514231667034400,20.848034423828125,9.37695026397705,2.155050039291382,-1.8169500827789309
1771514231687430700,20.8684306640625,10.29705047607422,1.9230000972747805,-1.4010000228881836
1771514231707828500,20.888828369140622,10.182000160217283,1.842000126838684,-0.598050057888031
1771514231728228400,20.909228271484373,9.526050567626951,2.2080001831054688,-0.3370500206947326
1771514231748630300,20.92963037109375,9.142950057983398,2.470950126647949,-0.8449500203132629
1771514231769031000,20.950031005859376,10.195950508117676,2.364000082015991,-2.11395001411438
1771514231789425400,20.97042529296875,11.707050323486328,2.127000093460083,-2.245950222015381
1771514231809819600,20.990819580078124,12.370050430297852,1.6360501050949097,-1.281000018119812
1771514231830214100,21.01121411132813,11.64900016784668,1.5210000276565552,-0.775950014591217
1771514231850612500,21.031612548828125,10.75605010986328,1.831950068473816,-1.4940000772476196
1771514231871011000,21.052010986328124,10.747050285339355,2.026050090789795,-2.2860000133514404
1771514231891407400,21.072407470703126,10.741950035095217,2.2489500045776367,-2.182950019836426
1771514231911805200,21.09280517578125,9.64305019378662,2.4589500427246094,-1.585050106048584
1771514231932206000,21.1132060546875,8.728050231933594,2.5699501037597656,-1.3140000104904177
1771514231952610300,21.1336103515625,8.917950630187988,2.5789501667022705,-1.6110000610351562
1771514231973012200,21.15401220703125,9.741000175476074,2.562000036239624,-2.0370001792907715
1771514231993406200,21.17440625,9.97605037689209,2.407050132751465,-2.3560500144958496
1771514232013800200,21.19480029296875,10.488000869750977,2.364000082015991,-2.272050142288208
1771514232034200300,21.215200439453124,10.869000434875488,2.139000177383423,-2.27400016784668
1771514232054602500,21.2356025390625,11.527050971984863,1.8250501155853271,-2.1190500259399414
1771514232075001900,21.256001953125,11.119950294494627,1.849050045013428,-1.8480000495910645
1771514232095398100,21.276398193359373,9.756000518798828,2.263050079345703,-1.879050135612488
1771514232115792000,21.2967919921875,9.255000114440918,2.577000141143799,-2.136000156402588
1771514232136187000,21.317186767578125,9.61905002593994,2.82105016708374,-1.9440001249313357
1771514232156587500,21.33758740234375,9.598050117492676,2.826000213623047,-1.9180500507354736
1771514232176987400,21.3579873046875,9.69105052947998,2.45205020904541,-2.1979501247406006
1771514232197380900,21.378380859375,10.17495059967041,2.287050008773804,-1.7860500812530518
1771514232217772000,21.39877197265625,9.562050819396973,2.3899500370025635,-1.258950114250183
1771514232238166300,21.419166259765625,8.87700080871582,2.4880502223968506,-1.2690000534057615
1771514232258562300,21.43956225585937,9.504000663757324,2.4760501384735107,-2.004000186920166
1771514232278955500,21.45995556640625,10.030950546264648,2.3110501766204834,-1.9060500860214236
1771514232299348500,21.480348388671874,10.222050666809082,1.957050085067749,-1.0369499921798706
1771514232319739600,21.50073974609375,10.312950134277344,2.146050214767456,-0.775950014591217
1771514232340130600,21.521130615234377,9.370050430297852,2.5890002250671387,-1.1850000619888306
1771514232360523500,21.5415234375,8.683050155639648,2.74905014038086,-1.759950041770935
1771514232380918300,21.561918212890625,9.48300075531006,2.713050127029419,-2.224050045013428
1771514232401313000,21.58231298828125,10.222050666809082,2.335050106048584,-1.7070001363754272
1771514232421706200,21.602706298828124,9.640950202941896,2.1600000858306885,-0.8860500454902649
1771514232442102800,21.623102783203127,8.929950714111328,2.1000001430511475,-0.7590000629425049
1771514232462503200,21.64350317382813,9.484950065612791,1.9039500951766968,-1.222950100898743
1771514232482904600,21.663904541015626,10.641000747680664,1.675950050354004,-1.3000500202178955
1771514232503302100,21.68430224609375,10.95300006866455,1.6840500831604004,-1.1440500020980835
1771514232523695000,21.70469506835937,10.005000114440918,2.244000196456909,-0.7330500483512878
1771514232544087000,21.725087158203124,8.60205078125,2.986050128936768,-0.7830000519752502
1771514232564482300,21.745482421875,8.281050682067871,3.769050121307373,-1.0890001058578491
1771514232584881200,21.765881103515625,8.25,3.700050115585327,-1.7359501123428345
1771514232605278500,21.786278564453124,10.054950714111328,2.6989500522613525,-2.0899500846862797
1771514232625676300,21.80667626953125,12.052050590515137,1.8679500818252563,-1.4389500617980957
1771514232646074000,21.82707421875,12.516000747680664,1.2430500984191897,-0.8209500312805176
1771514232666472400,21.847472412109376,12.72900104522705,1.055999994277954,-1.0219500064849854
1771514232686873300,21.867873291015623,12.205050468444824,1.055999994277954,-1.219050049781799
1771514232707275000,21.88827490234375,10.837950706481934,1.1020500659942627,-0.9580500721931458
1771514232727678500,21.908678466796875,9.850950241088867,1.5709500312805176,-0.3040500283241272
1771514232748079400,21.929079345703126,7.852050304412842,2.422950029373169,-0.0979500040411949
1771514232768478700,21.949478759765626,6.805950164794922,3.372000217437744,-0.4279500246047973
1771514232788877600,21.96987768554688,7.23900032043457,3.823950290679932,-0.9649500250816344
1771514232809275600,21.990275634765624,8.769000053405762,3.558000087738037,-1.6950000524520874
1771514232829675300,22.01067529296875,10.158000946044922,2.3970000743865967,-2.253000020980835
1771514232850073300,22.0310732421875,10.845000267028809,1.696050047874451,-1.7740501165390017
1771514232870475800,22.051475830078125,11.87700080871582,1.055999994277954,-1.3140000104904177
1771514232890880300,22.07188037109375,13.480950355529783,0.4050000309944153,-1.0390501022338867
1771514232911281200,22.09228125,12.9660005569458,0.6180000305175781,-0.325950026512146
1771514232931683000,22.11268310546875,10.432950019836426,1.042050004005432,-0.0690000057220459
1771514232952085000,22.1330849609375,8.239950180053711,1.7359501123428345,-0.0090000005438923
1771514232972483600,22.153483642578124,7.198950290679932,2.4910500049591064,0.0919500067830085
1771514232992879600,22.173879638671878,7.230000495910644,2.634000062942505,-0.1080000028014183
1771514233013278500,22.194278564453125,8.302050590515137,2.2920000553131104,-1.165950059890747
1771514233033679400,22.214679443359376,10.057050704956056,1.957050085067749,-1.4800500869750977
1771514233054079000,22.235078857421875,11.389050483703612,1.2550500631332395,-1.3810501098632812
1771514233074476500,22.2554765625,11.69700050354004,1.0320000648498535,-0.7969500422477722
1771514233094872600,22.27587255859375,11.629950523376465,1.2859500646591189,-0.6940500140190125
1771514233115268600,22.2962685546875,11.331000328063965,1.4040000438690186,-0.8070000410079956
1771514233135664400,22.316664306640625,11.254050254821776,1.1860500574111938,-0.7950000166893005
1771514233156058600,22.33705859375,11.214000701904297,1.1329500675201416,-0.4759500324726105
1771514233176452000,22.3574521484375,10.075950622558594,1.702950119972229,-0.286950021982193
1771514233196845300,22.37784521484375,8.64900016784668,2.31600022315979,-0.3850500285625458
1771514233217238000,22.398238037109376,8.082000732421875,2.842050075531006,-1.1040000915527344
1771514233237632800,22.4186328125,8.998950004577637,2.6610000133514404,-1.5390000343322754
1771514233258027500,22.439027587890624,10.72095012664795,2.047950029373169,-1.8649500608444212
1771514233278423300,22.45942333984375,12.210000991821287,1.5540000200271606,-2.431950092315674
1771514233298820400,22.4798203125,11.404950141906738,1.5660001039505005,-1.8199501037597656
1771514233319217400,22.50021752929688,10.036050796508787,1.7119500637054443,-1.055999994277954
1771514233339615500,22.520615478515627,10.480950355529783,1.9810501337051392,-1.0579500198364258
1771514233360012300,22.54101220703125,10.729950904846191,2.055000066757202,-1.2430500984191897
1771514233380405800,22.56140576171875,10.479000091552734,1.6090500354766846,-1.264050006866455
1771514233400801000,22.581801025390625,9.90195083618164,1.9759501218795776,-0.7330500483512878
1771514233421199000,22.60219921875,8.890950202941895,2.1190500259399414,-0.8910000324249268
1771514233441595600,22.622595703125,8.36205005645752,2.1979501247406006,-1.3980001211166382
1771514233461990400,22.642990478515625,9.253050804138184,2.104950189590454,-1.599000096321106
1771514233482385200,22.66338525390625,10.038000106811523,1.368000030517578,-1.714050054550171
1771514233502778600,22.683778564453124,11.3860502243042,0.7159500122070312,-1.573050022125244
1771514233523171600,22.70417163085937,11.53695011138916,0.7549500465393066,-1.0870500802993774
1771514233543565300,22.7245654296875,9.65505027770996,1.6290000677108765,-0.4980000257492065
1771514233563958300,22.744958251953125,8.12700080871582,3.2569501399993896,-0.1669500023126602
1771514233584350000,22.765349853515627,8.496000289916992,4.891950130462647,-0.2970000207424164
1771514233604740600,22.78574072265625,9.247950553894045,3.8310000896453857,-1.9270501136779783
1771514233625132300,22.80613232421875,10.218000411987305,3.0679502487182617,-3.1530001163482666
1771514233645525800,22.82652587890625,11.800050735473633,2.052000045776367,-1.978050112724304
1771514233665919000,22.8469189453125,12.598051071166992,0.2760000228881836,-0.7660500407218933
1771514233686311000,22.867310791015623,13.086000442504885,-1.0279500484466553,-0.2580000162124634
1771514233706700300,22.8877001953125,12.451951026916504,-1.0930500030517578,-0.0430500023066997
1771514233727091000,22.908091064453124,10.084050178527832,-1.1050500869750977,-0.2370000183582306
1771514233747483100,22.928483154296877,7.717950344085693,-0.9540000557899476,-0.4519500136375427
1771514233767873300,22.948873291015627,6.250050067901611,-0.8029500246047974,-0.364050030708313
1771514233788259600,22.96925952148437,5.448000431060791,0.1939500123262405,0.6889500617980957
1771514233808644600,22.98964453125,5.90595006942749,2.287050008773804,2.269050121307373
1771514233829032400,23.010032470703123,6.813000202178955,4.401000022888184,2.736000061035156
1771514233849428700,23.0304287109375,6.22605037689209,3.312000274658203,-1.5510001182556152
1771514233869825300,23.0508251953125,12.538050651550291,2.6200501918792725,-7.279050350189209
1771514233890215700,23.071215576171877,18.895050048828125,0.0600000023841857,-6.97005033493042
1771514233910607600,23.091607666015623,19.705951690673828,-0.8560500144958496,-3.1339502334594727
1771514233931003600,23.112003662109377,14.737950325012209,-0.3670500218868255,-0.7249500155448914
1771514233951401700,23.132401611328124,11.062950134277344,1.111050009727478,-1.4959501028060913
1771514233971798800,23.152798828125,8.982000350952148,2.004000186920166,-2.880000114440918
1771514233992192500,23.173192626953124,7.73205041885376,2.505000114440918,-3.3349502086639404
1771514234012584700,23.193584716796877,7.618050575256348,2.5000500679016118,-2.7199501991271973
1771514234032977700,23.213977783203124,7.225050449371338,2.4570000171661377,-1.4220000505447388
1771514234053369000,23.234369140625,6.844050407409668,2.365950107574463,-0.9070500135421752
1771514234073762800,23.2547626953125,7.549950122833252,2.047950029373169,-1.0990500450134275
1771514234094161200,23.2751611328125,9.648000717163086,1.219050049781799,-1.7050501108169556
1771514234114558200,23.29555810546875,12.862950325012209,0.5490000247955322,-1.755000114440918
1771514234134950100,23.3159501953125,13.819050788879396,0.2160000056028366,-0.4549500346183777
1771514234155339800,23.33633984375,11.395950317382812,0.987000048160553,0.9690000414848328
1771514234175732500,23.356732421875,9.294000625610352,1.894050121307373,0.9499500393867492
1771514234196128500,23.37712841796875,9.921000480651855,2.3800501823425293,-0.2800500094890594
1771514234216525300,23.397525390625,11.85300064086914,2.3800501823425293,-0.6199500560760498
1771514234236920800,23.4179208984375,11.593950271606444,2.359050035476685,-0.1440000087022781
1771514234257313800,23.438313720703125,9.87795066833496,2.2300500869750977,-0.3060000240802765
1771514234277705500,23.45870556640625,10.258050918579102,2.0839500427246094,-0.598050057888031
1771514234298096400,23.479096435546875,11.319000244140623,2.047950029373169,-1.225950002670288
1771514234318489900,23.49948974609375,11.03700065612793,1.8630000352859497,-1.4800500869750977
1771514234338882600,23.51988256835937,10.761000633239746,1.7149500846862793,-1.6279500722885132
1771514234359273500,23.5402734375,9.391950607299805,1.696050047874451,-0.856950044631958
1771514234379664600,23.56066455078125,7.9960503578186035,1.771950125694275,-0.270000010728836
1771514234400055600,23.5810556640625,7.768050193786621,1.5619500875473022,-0.2029500156641006
1771514234420450600,23.601450439453124,9.09000015258789,1.2220500707626345,-0.0450000017881393
1771514234440848100,23.62184814453125,9.562050819396973,1.054050087928772,-0.0120000001043081
1771514234461244200,23.642244140625,8.913000106811523,1.228950023651123,0.0109500009566545
1771514234481641000,23.662640869140624,8.167950630187988,1.5780000686645508,0.0610500015318393
1771514234502040300,23.683040283203123,8.367000579833984,1.9810501337051392,-0.4740000367164612
1771514234522435800,23.703435791015625,9.696000099182127,1.9399501085281368,-0.8209500312805176
1771514234542827000,23.723826904296875,11.320950508117676,1.3480501174926758,-1.3690500259399414
1771514234563218000,23.744218017578124,11.11305046081543,1.2889500856399536,-1.165950059890747
1771514234583609000,23.764609130859377,10.639050483703612,0.8190000653266907,-1.672950029373169
1771514234604004600,23.785004638671875,12.397050857543944,0.3169500231742859,-2.076000213623047
1771514234624398600,23.805398681640625,14.431950569152832,-0.111000008881092,-1.7209501266479492
1771514234644788700,23.82578881835937,13.675050735473633,0.0360000021755695,-0.4909500181674957
1771514234665182000,23.846181884765624,10.315950393676758,0.5370000004768372,-0.2230500131845474
1771514234685580000,23.866580078125,7.543050289154053,1.3440001010894775,-0.4879500269889831
1771514234705979600,23.88697973632813,6.0420002937316895,2.0500500202178955,-1.0890001058578491
1771514234726375400,23.90737548828125,6.784050464630127,2.0380501747131348,-1.4080500602722168
1771514234746768000,23.927767822265626,8.592000007629395,1.3129500150680542,-1.2829500436782837
1771514234767163000,23.94816284179688,10.291950225830078,0.4980000257492065,-1.0699501037597656
1771514234787560400,23.968560546875,11.283000946044922,0.1699500083923339,-0.9030000567436218
1771514234807959300,23.988959228515625,11.31195068359375,0.6250500082969666,-0.8020500540733337
1771514234828358400,24.0093583984375,10.507050514221191,1.3440001010894775,-1.0489500761032104
1771514234848752600,24.029752685546875,9.85395050048828,1.954050064086914,-1.7190001010894775
1771514234869144800,24.050144775390624,10.114950180053713,1.8730500936508176,-2.69100022315979
1771514234889537300,24.070537353515626,11.53005027770996,0.9850500226020812,-2.728950023651123
1771514234909931500,24.090931640625,13.036050796508787,0.1560000032186508,-2.052000045776367
1771514234930328800,24.111328857421874,13.69200038909912,0.0199500005692243,-0.8910000324249268
1771514234950725600,24.1317255859375,12.46095085144043,0.3430500030517578,-0.2230500131845474
1771514234971116500,24.15211645507813,10.450050354003906,0.9919500350952148,-0.3760500252246856
1771514234991506400,24.17250634765625,9.48300075531006,1.5709500312805176,-0.7830000519752502
1771514235011899000,24.19289892578125,9.370050430297852,1.7989500761032104,-0.8260500431060791
1771514235032291000,24.213291015625,9.63105010986328,1.7440500259399414,-0.5670000314712524
1771514235052681200,24.23368115234375,9.54300022125244,1.76295006275177,0.006000000052154
1771514235073069000,24.254069091796875,10.270050048828123,1.8030000925064087,-0.0840000063180923
1771514235093454300,24.274454345703123,10.807050704956056,1.7509500980377195,-0.7609500288963318
1771514235113839900,24.29483984375,10.552950859069824,2.1480000019073486,-0.8350500464439392
1771514235134225400,24.315225341796875,9.904050827026367,2.434950113296509,-0.7879500389099121
1771514235154610200,24.335610107421875,9.625950813293455,2.55495023727417,-0.5670000314712524
1771514235174994400,24.355994384765623,10.114950180053713,2.4160501956939697,-0.0859500020742416
1771514235195380500,24.37638037109375,9.355950355529783,2.431050062179565,0.0709500014781951
1771514235215770600,24.3967705078125,8.781000137329102,2.482950210571289,0.0690000057220459
1771514235236161800,24.417161865234377,8.329050064086914,2.731950044631958,-0.1770000010728836
1771514235256550000,24.4375498046875,8.701950073242188,1.987950086593628,-0.7639500498771667
1771514235276936000,24.45793603515625,11.617950439453123,0.975000023841858,-0.6370500326156616
1771514235297324300,24.47832421875,12.808050155639648,0.7140000462532043,0.1450500041246414
1771514235317714200,24.498714111328123,11.062950134277344,0.3720000088214874,0.3460500240325928
1771514235338102000,24.51910205078125,9.21405029296875,0.5869500041007996,-0.1909500062465667
1771514235358492700,24.53949267578125,7.555050373077393,1.39395010471344,-0.5509500503540039
1771514235378885600,24.5598857421875,6.724050521850586,2.1409502029418945,-0.43995001912117
1771514235399278600,24.580278564453124,7.809000492095947,2.0789999961853027,-0.2350500077009201
1771514235419668700,24.60066870117188,9.48300075531006,2.353950023651123,0.0760500058531761
1771514235440056600,24.621056640625,9.11595058441162,2.716050148010254,-0.055050004273653
1771514235460443400,24.641443359375,8.929950714111328,2.9170501232147217,-0.8190000653266907
1771514235480834600,24.66183447265625,10.12695026397705,3.3070502281188965,-1.6140000820159912
1771514235501230000,24.68222998046875,12.322051048278809,2.39205002784729,-2.674050092697144
1771514235521626000,24.702626220703124,15.622050285339355,0.4939500093460083,-3.001950025558472
1771514235542020000,24.72302001953125,16.624950408935547,-0.1210500076413154,-1.615950107574463
1771514235562410800,24.74341064453125,14.14905071258545,0.3120000064373016,-0.2820000052452087
1771514235582801200,24.76380126953125,10.624950408935549,0.8029500246047974,-0.2610000073909759
1771514235603195000,24.78419482421875,8.404950141906738,1.5619500875473022,-0.534000039100647
1771514235623590400,24.80459033203125,7.098000526428223,2.158050060272217,-0.8089500665664673
1771514235643983600,24.824983642578125,6.496950149536133,2.4790501594543457,-0.6150000095367432
1771514235664375800,24.845375732421875,6.696000099182129,2.284950017929077,-0.1890000104904174
1771514235684768000,24.86576806640625,7.6650004386901855,2.265000104904175,0.6670500040054321
1771514235705158700,24.88615869140625,8.326050758361816,2.1220500469207764,0.7170000076293945
1771514235725551000,24.906551025390623,9.295950889587402,1.9489500522613523,-0.0049500004388391
1771514235745945000,24.926945068359377,10.857000350952148,1.6240500211715698,-0.5550000071525574
1771514235766337000,24.9473369140625,12.92595100402832,0.9100500345230104,-0.1750500053167343
1771514235786729500,24.9677294921875,14.55405044555664,0.0559500008821487,0.1039500012993812
1771514235807125800,24.988125732421874,14.713951110839844,0.003000000026077,-0.0979500040411949
1771514235827520800,25.008520751953125,12.985950469970703,0.478950023651123,-0.4380000233650207
1771514235847912200,25.028912109375,10.653000831604004,1.0180500745773315,-0.4500000178813934
1771514235868304600,25.0493046875,9.010950088500977,1.4470500946044922,-0.3420000076293945
1771514235888696800,25.06969677734375,8.599050521850586,1.8439500331878664,-0.2149500101804733
1771514235909087500,25.09008740234375,8.431950569152832,1.9369500875473025,-0.096000000834465
1771514235929478400,25.110478515625,7.945950508117676,1.717050075531006,-0.1530000120401382
1771514235949869300,25.130869384765624,8.6089506149292,1.5970500707626345,-0.5860500335693359
1771514235970261000,25.15126098632813,10.30905055999756,0.7120500206947327,-0.8590500354766846
1771514235990655200,25.1716552734375,12.351000785827637,-0.0079500004649162,-0.7680000066757202
1771514236011048400,25.19204833984375,13.8589506149292,-0.22605000436306,-0.4069500267505646
1771514236031439400,25.212439453125,12.379950523376465,-0.0850500017404556,-0.0910500064492225
1771514236051833000,25.2328330078125,9.768000602722168,0.520050048828125,-0.3949500322341919
1771514236072223500,25.253223388671877,8.556000709533691,1.1640000343322754,-0.675000011920929
1771514236092612600,25.27361254882813,8.223000526428223,1.630950093269348,-0.598050057888031
1771514236113004000,25.294004150390624,8.575050354003906,1.7700001001358032,-0.2059500068426132
1771514236133393400,25.31439331054688,9.217050552368164,1.76295006275177,-0.1630500108003616
1771514236153781200,25.33478125,10.207950592041016,1.3480501174926758,-0.8449500203132629
1771514236174171100,25.35517114257813,11.367000579833984,0.7639500498771667,-1.738050103187561
1771514236194564400,25.375564453125,12.13800048828125,0.3240000009536743,-1.8169500827789309
1771514236214957800,25.395957763671877,12.16200065612793,-0.0540000014007091,-0.9100500345230104
1771514236235348500,25.416348388671874,11.271000862121582,-0.0799500048160553,-0.2779500186443329
1771514236255739000,25.43673876953125,10.153050422668455,0.325950026512146,-0.5749500393867493
1771514236276129800,25.4571298828125,9.519000053405762,0.7930500507354736,-0.7590000629425049
1771514236296521000,25.47752099609375,9.44895076751709,0.5389500260353088,-0.6079500317573547
1771514236316914000,25.497913818359372,10.218000411987305,0.4579500257968902,0.0709500014781951
1771514236337307400,25.518307373046877,10.294050216674805,0.5680500268936157,0.4950000345706939
1771514236357702000,25.538701904296875,10.663050651550291,0.2299500107765197,-0.096000000834465
1771514236378096000,25.55909619140625,11.404950141906738,0.7069500088691711,-0.1770000010728836
1771514236398488800,25.57948876953125,10.357050895690918,1.2960000038146973,-0.5700000524520874
1771514236418882000,25.599882080078125,9.6739501953125,1.630950093269348,-1.0200001001358032
1771514236439274000,25.62027392578125,9.490050315856934,2.0500500202178955,-1.0410000085830688
1771514236459666000,25.640666015625,9.556950569152832,1.602000117301941,-0.9379500150680542
1771514236480060700,25.661060791015625,10.231950759887695,1.3650000095367432,-0.6649500131607056
1771514236500462300,25.68146240234375,10.681950569152832,1.3699500560760498,-0.3570000231266022
1771514236520865800,25.70186572265625,10.00200080871582,1.4730000495910645,-0.4069500267505646
1771514236541267700,25.722267822265625,10.081050872802734,1.717050075531006,-0.6769500374794006
1771514236561668900,25.7426689453125,10.345050811767578,1.6210501194000244,-0.5580000281333923
1771514236582065400,25.7630654296875,10.95300006866455,1.0900501012802124,-0.3300000131130218
1771514236602457600,25.78345751953125,12.277050971984863,0.5130000114440918,-0.3210000097751617
1771514236622850600,25.8038505859375,12.531000137329102,0.4600500166416168,-0.3280500173568725
1771514236643247900,25.824247802734376,10.76805019378662,0.9490500688552856,-0.4669500291347503
1771514236663642600,25.844642578125,9.67905044555664,1.0249500274658203,-0.505050003528595
1771514236684036600,25.86503662109375,10.28505039215088,1.072950005531311,0.0160500016063451
1771514236704433200,25.88543310546875,9.705000877380373,0.9510000348091124,1.0290000438690186
1771514236724832000,25.90583203125,9.054000854492188,1.2690000534057615,1.5580500364303589
1771514236745229000,25.92622900390625,8.163000106811523,2.5909500122070312,1.2370500564575195
1771514236765622000,25.9466220703125,7.018950462341309,3.252000093460083,0.1549500077962875
1771514236786013400,25.967013427734376,7.4760003089904785,1.927950143814087,-1.4130001068115234
1771514236806404600,25.987404541015625,11.752050399780272,1.0200001001358032,-1.290000081062317
1771514236826798600,26.00779858398437,13.891050338745115,0.3960000276565552,-0.2370000183582306
1771514236847193600,26.028193603515625,11.563050270080566,0.5940000414848328,0.6840000152587891
1771514236867591700,26.048591796875,9.229050636291504,1.3890000581741333,0.5550000071525574
1771514236887988700,26.06898876953125,8.245050430297852,2.3560500144958496,0.0570000037550926
1771514236908386000,26.089385986328125,9.171000480651855,1.5019500255584717,-0.4189500212669372
1771514236928786400,26.109786376953124,12.12795066833496,-0.135000005364418,-0.1319999992847442
1771514236949186000,26.13018603515625,13.705950736999512,-0.7810500264167786,1.045050024986267
1771514236969586200,26.150586181640627,12.724950790405272,-0.8839500546455383,1.8619500398635864
1771514236989983500,26.1709833984375,12.12795066833496,-0.5710500478744507,1.1440500020980835
1771514237010377700,26.191377685546875,11.368950843811035,0.4360500276088714,0.3820500075817108
1771514237030771200,26.211771240234373,9.66195011138916,0.703950047492981,-0.3180000185966491
1771514237051163600,26.23216357421875,9.933000564575195,0.1969500035047531,-1.321950078010559
1771514237071559200,26.25255908203125,10.885950088500977,0.4290000200271606,-1.5559500455856323
1771514237091955000,26.27295483398437,9.259950637817385,0.8460000157356262,-0.5700000524520874
1771514237112351000,26.29335107421875,7.9069504737854,1.272000074386597,0.0250500012189149
1771514237132751600,26.313751708984373,8.587050437927246,1.7440500259399414,0.0829500034451484
1771514237153149700,26.334149658203124,9.538050651550291,2.098050117492676,0.1260000020265579
1771514237173548300,26.35454833984375,9.367950439453123,1.420050024986267,-1.2280501127243042
1771514237193952000,26.374951904296875,11.197050094604492,0.208950012922287,-2.67900013923645
1771514237214353000,26.395352783203126,13.43595027923584,-0.2329500168561935,-2.101950168609619
