time,seconds_elapsed,z,y,x
1771514210950248700,0.131248779296875,0.5577970147132874,0.19796499609947205,-0.11978299915790558
1771514211290468400,0.47146826171875,1.1488779783248901,-1.2572029829025269,0.6116750240325928
1771514211300672000,0.481672119140625,0.898052990436554,-1.246548056602478,0.46069100499153137
1771514211321077500,0.502077392578125,0.7231240272521973,-0.9579669833183289,0.4361020028591156
1771514211341481200,0.522481201171875,0.7393530011177063,-0.7851899862289429,0.2232069969177246
1771514211361885700,0.5428857421875,1.0175390243530273,-0.8190969824790955,0.09702199697494507
1771514211382088700,0.563088623046875,0.9803000092506409,-0.837693989276886,0.1630849987268448
1771514211402490000,0.583489990234375,0.7410359978675842,-0.7317990064620972,0.26789000630378723
1771514211423089700,0.604089599609375,0.5583599805831909,-0.5948889851570129,0.3042150139808655
1771514211443489300,0.6244892578125,0.6273819804191589,-0.39650899171829224,0.30352601408958435
1771514211463891200,0.64489111328125,0.7292829751968384,-0.4243150055408478,0.2657490074634552
1771514211484292600,0.665292724609375,0.6982700228691101,-0.39697501063346863,-0.027180999517440796
1771514211504691500,0.68569140625,0.3196829855442047,-0.1897449940443039,-0.28797900676727295
1771514211525091000,0.706091064453125,0.19816899299621582,0.021692000329494476,-0.08341900259256363
1771514211545493200,0.7264931640625,0.30561599135398865,0.10234499722719193,0.08910199999809265
1771514211565895000,0.74689501953125,0.3944869935512543,0.05878499895334244,-0.08792199939489365
1771514211586295300,0.76729541015625,0.4868600070476532,0.011134999804198742,-0.22264200448989868
1771514211606695200,0.787695068359375,0.6347360014915466,-0.03655900061130524,-0.412447988986969
1771514211627098400,0.808098388671875,0.8178250193595886,-0.06764599680900574,-0.2833549976348877
1771514211647505400,0.82850537109375,0.7532169818878174,-0.0026499999221414328,-0.0626169964671135
1771514211667911700,0.84891162109375,0.6702269911766052,0.12386000156402588,0.09686499834060669
1771514211688314400,0.869314453125,0.4980120062828064,0.05767500028014183,-0.04901700094342232
1771514211708712400,0.88971240234375,0.6263160109519958,0.06426200270652771,-0.14889900386333466
1771514211729111800,0.91011181640625,0.6538419723510742,0.02166599966585636,-0.14810200035572052
1771514211749518800,0.930518798828125,0.39042699337005615,0.01964999921619892,-0.030417000874876976
1771514211769927400,0.950927490234375,0.22430899739265442,0.22376400232315063,0.16780799627304077
1771514211790332700,0.971332763671875,0.3983190059661865,0.2513180077075958,0.03623500093817711
1771514211810739500,0.991739501953125,0.6305320262908936,0.1019740030169487,-0.18424800038337708
1771514211831146000,1.01214599609375,0.7823569774627686,-0.05309399962425232,-0.1109130010008812
1771514211851550000,1.032550048828125,0.7494750022888184,-0.042872000485658646,0.00042100000428035855
1771514211871957800,1.052957763671875,0.6805009841918945,0.04132299870252609,-0.020692000165581703
1771514211892364000,1.073364013671875,0.5194230079650879,0.057461999356746674,-0.12172599881887436
1771514211912766200,1.09376611328125,0.4767000079154968,0.05869999900460243,-0.300821989774704
1771514211933168400,1.11416845703125,0.3938960134983063,-0.012798000127077103,-0.4093500077724457
1771514211953570300,1.1345703125,0.3165139853954315,-0.021081000566482544,-0.2356099933385849
1771514211973971500,1.154971435546875,0.3750070035457611,-0.06070299819111824,0.03175399824976921
1771514211994371300,1.175371337890625,0.5733749866485596,-0.010680999606847763,0.23499399423599243
1771514212014770200,1.195770263671875,0.8361780047416687,-0.06772000342607498,0.12853099405765533
1771514212035169000,1.2161689453125,0.8356940150260925,-0.2638489902019501,-0.1996379941701889
1771514212055570400,1.2365703125,0.839156985282898,-0.2757990062236786,-0.27494698762893677
1771514212075974100,1.25697412109375,0.7576370239257812,-0.2078620046377182,-0.14529800415039062
1771514212096377300,1.27737744140625,0.6442030072212219,-0.1819790005683899,0.07837899774312973
1771514212116777700,1.29777783203125,0.7356039881706238,-0.12559400498867035,0.09318599849939346
1771514212137180400,1.318180419921875,0.7924699783325195,-0.10394299775362015,-0.18309499323368073
1771514212157584100,1.338584228515625,0.7494469881057739,-0.12079700082540512,-0.3273659944534302
1771514212177985500,1.358985595703125,0.5948219895362854,-0.05197000131011009,-0.3062550127506256
1771514212198389500,1.379389404296875,0.4667400121688843,0.06541699916124344,-0.05254700034856796
1771514212218794500,1.39979443359375,0.3784619867801666,0.1675020009279251,0.11014699935913086
1771514212239196000,1.42019580078125,0.3889389932155609,0.17674100399017334,-0.09686899930238724
1771514212259595000,1.440594970703125,0.3769319951534271,0.10680899769067764,-0.47093701362609863
1771514212279996400,1.460996337890625,0.4983620047569275,0.19756299257278442,-0.4649440050125122
1771514212300399900,1.48139990234375,0.7960630059242249,0.1653759926557541,-0.33653900027275085
1771514212320804400,1.501804443359375,0.9005270004272461,0.13093499839305878,-0.17521999776363373
1771514212341209900,1.5222099609375,0.6898090243339539,0.14260099828243256,0.027070000767707825
1771514212361616400,1.542616455078125,0.4658859968185425,0.1274390071630478,0.01179600041359663
1771514212382025700,1.563025634765625,0.5456050038337708,0.0828540027141571,-0.03879300132393837
1771514212402435600,1.583435546875,0.5477619767189026,0.11763100326061249,-0.20146800577640533
1771514212422840000,1.603840087890625,0.4863770008087158,0.18114399909973145,-0.10877499729394913
1771514212443241000,1.624240966796875,0.5190610289573669,0.1157979965209961,-0.015577999874949455
1771514212463641300,1.644641357421875,0.5617510080337524,0.13728900253772736,0.21276399493217468
1771514212484042000,1.6650419921875,0.6350910067558289,0.007796000223606825,0.06094500049948692
1771514212504446200,1.6854462890625,0.42834898829460144,0.05837000161409378,-0.1866610050201416
1771514212524851200,1.705851318359375,0.28775298595428467,0.17146000266075134,-0.016163000836968422
1771514212545257200,1.72625732421875,0.31405898928642273,0.08149400353431702,0.21363699436187744
1771514212565662500,1.746662353515625,0.8026630282402039,0.10976800322532654,0.2165749967098236
1771514212586066000,1.76706591796875,0.9264659881591797,-0.032287001609802246,-0.029100999236106873
1771514212606467800,1.7874677734375,0.9140220284461975,-0.0763619989156723,-0.25892600417137146
1771514212626868500,1.807868408203125,0.7695419788360596,0.0900299996137619,-0.19040299952030182
1771514212647270000,1.828269775390625,0.5935999751091003,0.29442098736763,-0.007952000014483929
1771514212667672600,1.848672607421875,0.6151919960975647,0.3725360035896301,0.06697200238704681
1771514212688074200,1.86907421875,0.4949119985103607,0.1595660001039505,-0.3061540126800537
1771514212708472300,1.889472412109375,0.2630999982357025,0.16511300206184387,-0.36090099811553955
1771514212728877000,1.909876953125,0.06426899880170822,0.2413260042667389,-0.01915000006556511
1771514212749286400,1.930286376953125,0.22346000373363495,0.08188600093126297,0.06274999678134918
1771514212769694500,1.950694580078125,0.6071000099182129,0.052754998207092285,-0.12047500163316727
1771514212790099500,1.971099365234375,0.6801580190658569,0.261231005191803,-0.4362100064754486
1771514212810504700,1.991504638671875,0.6227210164070129,0.528223991394043,-0.2959119975566864
1771514212830910700,2.01191064453125,0.5512229800224304,0.5306320190429688,-0.08634500205516815
1771514212851313000,2.03231298828125,0.7605630159378052,0.4597940146923065,0.02443300001323223
1771514212871715000,2.052715087890625,0.608178973197937,0.1796019971370697,-0.11979199945926666
1771514212892119000,2.073119140625,0.42706298828125,0.29842299222946167,0.06395400315523148
1771514212912521700,2.093521728515625,0.3526949882507324,0.40280699729919434,-0.22321799397468567
1771514212932924700,2.113924560546875,0.49838900566101074,0.398703008890152,-0.3616909980773926
1771514212953327400,2.134327392578125,0.7127490043640137,0.3545350134372711,-0.30255600810050964
1771514212973731300,2.1547314453125,0.5725759863853455,0.3640330135822296,-0.1447400003671646
1771514212994140000,2.175139892578125,0.2720550000667572,0.3893429934978485,-0.024599000811576843
1771514213014545000,2.195544921875,0.4075680077075958,0.30496200919151306,-0.17861999571323395
1771514213034944800,2.21594482421875,0.8510149717330933,0.24284599721431732,-0.3090290129184723
1771514213055345400,2.236345458984375,0.985821008682251,0.15146200358867645,-0.1372389942407608
1771514213075747000,2.2567470703125,0.6770370006561279,0.1902959942817688,0.21305499970912933
1771514213096149000,2.27714892578125,0.2401770055294037,0.29616600275039673,0.2765290141105652
1771514213116551400,2.297551513671875,0.026507999747991562,0.3884429931640625,-0.14689600467681885
1771514213136955000,2.317954833984375,0.08109399676322937,0.3536359965801239,-0.25006601214408875
1771514213157355300,2.338355224609375,0.21796999871730804,0.2422180026769638,-0.10213600099086761
1771514213177757000,2.3587568359375,0.2901819944381714,0.2336380034685135,-0.10050199925899506
1771514213198160000,2.379159912109375,0.3837130069732666,0.29325801134109497,-0.07575099915266037
1771514213218561300,2.399561279296875,0.5406330227851868,0.19175100326538086,-0.01032199990004301
1771514213238962200,2.419962158203125,0.6534309983253479,0.05597100034356117,-0.1009019985795021
1771514213259364900,2.44036474609375,0.7680469751358032,0.0405769981443882,-0.08803799748420715
1771514213279766800,2.460766845703125,0.8814979791641235,0.07886099815368652,-0.0909079983830452
1771514213300167400,2.48116748046875,0.8749650120735168,0.1680690050125122,-0.050230998545885086
1771514213320569000,2.501569091796875,0.7113509774208069,0.3079729974269867,-0.1291790008544922
1771514213340972000,2.521971923828125,0.4727639853954315,0.3041270077228546,-0.3659909963607788
1771514213361374700,2.542374755859375,0.21546900272369385,0.3100590109825134,-0.4794510006904602
1771514213381775400,2.562775390625,0.024992000311613083,0.2628830075263977,-0.39346298575401306
1771514213402175000,2.583175048828125,0.012631000019609928,0.33938100934028625,-0.2175689935684204
1771514213422574800,2.603574951171875,0.021405000239610672,0.34397900104522705,-0.08858700096607208
1771514213442972400,2.623972412109375,0.18786199390888214,0.3109470009803772,-0.15390899777412415
1771514213463370000,2.644369873046875,0.5576130151748657,0.17660300433635712,-0.2822200059890747
1771514213483769600,2.66476953125,0.7805609703063965,-0.012280999682843685,-0.2965709865093231
1771514213504169700,2.685169677734375,0.877964973449707,-0.1385750025510788,-0.3076139986515045
1771514213524574200,2.70557421875,0.6649720072746277,-0.11673499643802643,-0.11045999825000763
1771514213544980200,2.725980224609375,0.6151059865951538,0.011517999693751335,0.04666300117969513
1771514213565383700,2.7463837890625,0.5897409915924072,-0.07644899934530258,-0.18341200053691864
1771514213585784300,2.766784423828125,0.4992139935493469,-0.24172300100326538,-0.18980300426483154
1771514213606183200,2.78718310546875,0.4175730049610138,-0.20329999923706055,-0.10786999762058258
1771514213626583000,2.8075830078125,0.406482994556427,-0.10237500071525574,-0.05072300136089325
1771514213646981400,2.8279814453125,0.31202900409698486,-0.14631399512290955,0.009081000462174416
1771514213667379500,2.84837939453125,0.21364200115203857,-0.09343600273132324,0.05211000144481659
1771514213687780400,2.8687802734375,0.3672749996185303,-0.14948000013828278,0.041512999683618546
1771514213708179500,2.889179443359375,0.47932499647140503,-0.351951003074646,-0.05063299834728241
1771514213728575000,2.909574951171875,0.6444069743156433,-0.41623300313949585,-0.05258600041270256
1771514213748973300,2.929973388671875,0.6808069944381714,-0.39012399315834045,0.07513699680566788
1771514213769376000,2.9503759765625,0.8479830026626587,-0.25601398944854736,0.33258000016212463
1771514213789781800,2.97078173828125,1.0901989936828613,-0.296764999628067,0.07383300364017487
1771514213810183200,2.99118310546875,1.0620989799499512,-0.5694689750671387,-0.43595701456069946
1771514213830582000,3.01158203125,0.9499340057373047,-0.47841599583625793,-0.16445499658584595
1771514213850982100,3.031982177734375,0.7864410281181335,-0.28132501244544983,0.2808449864387512
1771514213871380200,3.052380126953125,0.7573530077934265,-0.2633439898490906,0.30961599946022034
1771514213891777800,3.07277783203125,0.7766879796981812,-0.26035699248313904,0.06863100081682205
1771514213912177700,3.093177734375,0.7855669856071472,-0.231331005692482,-0.06386800110340118
1771514213932576500,3.113576416015625,0.5046079754829407,-0.2825619876384735,-0.036782000213861465
1771514213952977200,3.13397705078125,0.4596549868583679,-0.1378210037946701,0.29651200771331787
1771514213973382000,3.1543818359375,0.6614919900894165,0.02159000001847744,0.20860500633716583
1771514213993782800,3.17478271484375,0.8142020106315613,-0.0032689999788999557,-0.10750199854373932
1771514214014178800,3.1951787109375,0.8727179765701294,-0.1123030036687851,-0.19561700522899628
1771514214034577200,3.2155771484375,0.8320350050926208,-0.13463500142097473,-0.13446299731731415
1771514214054978300,3.235978271484375,0.7314429879188538,-0.057402998208999634,0.018755000084638596
1771514214075379500,3.25637939453125,0.5849800109863281,0.0898519977927208,0.11508899927139282
1771514214095780900,3.27678076171875,0.3425630033016205,0.18484599888324738,0.0199350006878376
1771514214116184800,3.297184814453125,0.24440200626850128,0.1732729971408844,-0.2906689941883087
1771514214136587500,3.31758740234375,0.2933799922466278,0.04678900167346001,-0.25254398584365845
1771514214156984300,3.337984375,0.46309199929237366,0.06653100252151489,0.0643410012125969
1771514214177380900,3.358380859375,0.5636529922485352,0.06934099644422531,0.21436400711536407
1771514214197779200,3.378779296875,0.5054709911346436,0.04126700013875961,0.06026000156998634
1771514214218180000,3.39918017578125,0.3381809890270233,0.06709299981594086,-0.13051700592041016
1771514214238579500,3.419579345703125,0.2825779914855957,0.19490200281143188,-0.11114499717950821
1771514214258978000,3.43997802734375,0.30043500661849976,0.15239199995994568,-0.09217800199985504
1771514214279376400,3.46037646484375,0.4170199930667877,0.040585000067949295,-0.08104600012302399
1771514214299772000,3.48077197265625,0.5976669788360596,0.07838600128889084,0.07195799797773361
1771514214320170500,3.50117041015625,0.6470450162887573,0.03544199839234352,0.10099700093269348
1771514214340570600,3.521570556640625,0.6632930040359497,-0.05504399910569191,0.017155999317765236
1771514214360971800,3.5419716796875,0.6522830128669739,0.05603500083088875,-0.07194799929857254
1771514214381369300,3.562369384765625,0.5573149919509888,0.05236700177192688,-0.19232699275016785
1771514214401762300,3.58276220703125,0.5405880212783813,0.050404999405145645,-0.21883399784564972
1771514214422161000,3.603160888671875,0.6325479745864868,-0.03001200035214424,-0.1570259928703308
1771514214442563800,3.623563720703125,0.671334981918335,-0.12761299312114716,-0.18153999745845795
1771514214462967800,3.6439677734375,0.7382950186729431,-0.09161499887704849,-0.13662199676036835
1771514214483371500,3.66437158203125,0.7290130257606506,-0.018086999654769897,-0.23857499659061432
1771514214503775000,3.68477490234375,0.6171849966049194,0.03914999961853027,-0.3260590136051178
1771514214524181000,3.705180908203125,0.6409419775009155,0.15505099296569824,-0.3987410068511963
1771514214544584700,3.725584716796875,0.6139580011367798,0.18883199989795685,-0.51288902759552
1771514214564986600,3.745986572265625,0.6906939744949341,0.32464200258255005,-0.458077996969223
1771514214585390000,3.76639013671875,0.6067100167274475,0.3480769991874695,-0.3807910084724426
1771514214605790200,3.786790283203125,0.5969759821891785,0.36584699153900146,-0.2874409854412079
1771514214626188800,3.807188720703125,0.6425139904022217,0.4169520139694214,-0.33633899688720703
1771514214646589400,3.82758935546875,0.754755973815918,0.31198200583457947,-0.2611300051212311
1771514214666990000,3.847989990234375,0.7158039808273315,0.02165300026535988,-0.03172000125050545
1771514214687390500,3.868390380859375,0.7031139731407166,-0.139492005109787,0.305635005235672
1771514214707790300,3.888790283203125,0.7970860004425049,-0.2906619906425476,0.20276899635791779
1771514214728188000,3.90918798828125,0.787572979927063,-0.42151200771331787,0.1235710009932518
1771514214748586500,3.92958642578125,0.6852759718894958,-0.39994901418685913,-0.007063999772071838
1771514214768988000,3.94998779296875,0.4333130121231079,-0.40283799171447754,-0.003524000057950616
1771514214789388500,3.970388427734375,0.1698800027370453,-0.4867109954357147,0.08886200189590454
1771514214809787100,3.990787109375,0.0827300027012825,-0.5116369724273682,0.054611001163721085
1771514214830189300,4.011189208984375,0.20884199440479279,-0.4225679934024811,0.05281100049614906
1771514214850593000,4.031593017578125,0.35070300102233887,-0.44627898931503296,-0.03905300050973892
1771514214870995200,4.0519951171875,0.4427579939365387,-0.4817639887332916,-0.17858700454235077
1771514214891398100,4.072398193359375,0.4186829924583435,-0.4134120047092438,-0.12771199643611908
1771514214911800800,4.09280078125,0.5565630197525024,-0.29857000708580017,0.02995000034570694
1771514214932203300,4.113203369140625,0.6632750034332275,-0.31271499395370483,-0.12537500262260437
1771514214952605000,4.13360498046875,0.6700800061225891,-0.2463109940290451,-0.37498098611831665
1771514214973006300,4.15400634765625,0.5030009746551514,-0.057808998972177505,-0.3915799856185913
1771514214993408300,4.174408203125,0.6008729934692383,0.11007300019264221,-0.25459200143814087
1771514215013809200,4.19480908203125,0.723351001739502,0.09830400347709656,-0.2978940010070801
1771514215034211000,4.215211181640625,0.7319250106811523,0.08945699781179428,-0.38390401005744934
1771514215054610400,4.2356103515625,0.6419090032577515,0.2668539881706238,-0.47310200333595276
1771514215075011300,4.25601123046875,0.46062999963760376,0.2927449941635132,-0.4530090093612671
1771514215095415800,4.276415771484375,0.44906800985336304,0.2663460075855255,-0.3907169997692108
1771514215115815700,4.296815673828125,0.5664560198783875,0.20970399677753448,-0.24046699702739716
1771514215136215800,4.3172158203125,0.7149890065193176,0.23922200500965118,-0.09075699746608734
1771514215156617700,4.33761767578125,0.7134900093078613,0.1896899938583374,-0.15502899885177612
1771514215177015600,4.358015625,0.6282340288162231,0.10019499808549881,-0.11299599707126617
1771514215197412400,4.378412353515625,0.486640989780426,0.09624700248241425,-0.026531999930739403
1771514215217810000,4.398809814453125,0.5080819725990295,0.13833600282669067,0.0545790009200573
1771514215238208300,4.419208251953125,0.5658429861068726,0.23479899764060974,0.05671500042080879
1771514215258606800,4.43960693359375,0.7139520049095154,0.205035999417305,0.15133099257946014
1771514215279004200,4.460004150390625,0.7292640209197998,0.18256999552249908,0.1952189952135086
1771514215299404500,4.480404541015625,0.7871469855308533,0.19973500072956085,0.07964099943637848
1771514215319805200,4.50080517578125,0.829226016998291,0.21326300501823425,0.04202299937605858
1771514215340200400,4.521200439453125,0.8426820039749146,0.2546350061893463,0.12079600244760513
1771514215360596500,4.541596435546875,0.8813199996948242,0.2631019949913025,0.2204730063676834
1771514215380992300,4.5619921875,0.8545029759407043,0.15911899507045746,0.013051999732851982
1771514215401388500,4.582388427734375,0.7376469969749451,0.18072600662708282,-0.08743099868297577
1771514215421787600,4.60278759765625,0.7125440239906311,0.16488400101661682,-0.17284199595451355
1771514215442185200,4.623185302734375,0.7380549907684326,0.25825101137161255,-0.047488000243902206
1771514215462583300,4.643583251953125,0.4975070059299469,0.39132899045944214,0.022637000307440758
1771514215482983400,4.6639833984375,0.3669170141220093,0.22613400220870972,-0.2709150016307831
1771514215503383300,4.68438330078125,0.7313470244407654,-0.35935598611831665,-0.25252699851989746
1771514215523782400,4.704782470703125,0.7383099794387817,0.02550400048494339,0.03471900150179863
1771514215544179700,4.7251796875,0.5509899854660034,0.25798800587654114,0.6006550192832947
1771514215564576800,4.74557666015625,0.4350360035896301,0.042796000838279724,0.5849379897117615
1771514215584974300,4.765974365234375,0.06902900338172913,-0.16074399650096893,0.013669000007212162
1771514215605374700,4.786374755859375,0.10507699847221375,-0.19304299354553223,-0.07924400269985199
1771514215625776000,4.806776123046875,-0.22871200740337372,-0.35857701301574707,0.315746009349823
1771514215646175200,4.82717529296875,-0.2669200003147125,-0.7362419962882996,0.6480479836463928
1771514215666572800,4.84757275390625,-0.07287800312042236,-0.8552939891815186,0.9479820132255554
1771514215686973000,4.867972900390625,0.7996690273284912,-0.7521939873695374,0.4952619969844818
1771514215707375600,4.888375732421875,1.3767720460891724,-0.9160760045051575,-0.007681000046432018
1771514215727778000,4.908778076171875,1.5137250423431396,-0.9260119795799255,-0.10544099658727646
1771514215748178700,4.9291787109375,1.424914002418518,-0.7362689971923828,-0.10082700103521347
1771514215768578600,4.94957861328125,1.1932549476623535,-0.3075009882450104,-0.2954910099506378
1771514215788978200,4.969978271484375,0.5652599930763245,-0.18401600420475006,-0.5512120127677917
1771514215809373700,4.990373779296875,0.22296200692653656,-0.009324000217020512,-0.42304500937461853
1771514215829769200,5.010769287109375,0.1458359956741333,-0.00938200019299984,-0.19783900678157806
1771514215850166300,5.031166259765625,0.38422200083732605,-0.02524399943649769,-0.05353400111198425
1771514215870563300,5.051563232421875,0.48376598954200745,0.03209900110960007,-0.19356900453567505
1771514215890962700,5.071962646484375,0.16982799768447876,0.0600459985435009,-0.2784239947795868
1771514215911363300,5.09236328125,0.3592990040779114,0.40937599539756775,-0.14444699883460999
1771514215931762000,5.112761962890625,0.5932509899139404,0.3224729895591736,-0.3069719970226288
1771514215952159500,5.133159423828125,0.8729130029678345,0.13593900203704834,-0.01655999943614006
1771514215972554800,5.1535546875,1.2453500032424927,0.17526599764823914,0.0958160012960434
1771514215992950800,5.17395068359375,1.1255220174789429,-0.07325399667024612,0.5881270170211792
1771514216013347600,5.19434765625,0.8175010085105896,0.36551299691200256,-0.06030000001192093
1771514216033742000,5.2147421875,0.1678609997034073,0.39491599798202515,-0.527301013469696
1771514216054140200,5.23514013671875,0.1614380031824112,0.6442970037460327,-0.20807600021362305
1771514216074539000,5.2555390625,0.209074005484581,0.03596699982881546,-1.3232929706573486
1771514216094940200,5.275940185546875,0.26129400730133057,0.8014190196990967,-0.6479889750480652
1771514216115343600,5.296343505859375,0.235166996717453,1.0356210470199585,-0.10813499987125397
1771514216135745800,5.316745849609375,0.025265999138355255,0.45327699184417725,-0.46900999546051025
1771514216156145400,5.3371455078125,-0.36483800411224365,0.48069098591804504,-0.43393000960350037
1771514216176543500,5.35754345703125,-0.2154099941253662,0.5875710248947144,-0.26388901472091675
1771514216196942300,5.3779423828125,0.4988490045070648,0.3961839973926544,-0.21015700697898865
1771514216217339400,5.39833935546875,1.0202280282974243,0.10429300367832184,-0.17812000215053558
1771514216237737000,5.418737060546875,1.1585110425949097,-0.12888599932193756,-0.27861499786376953
1771514216258134000,5.439134033203125,0.9998059868812561,0.03450699895620346,-0.2545439898967743
1771514216278528300,5.4595283203125,0.6964660286903381,0.018688000738620758,-0.023099999874830246
1771514216298922800,5.4799228515625,0.39987701177597046,-0.10155200213193893,-0.12014900147914886
1771514216319322600,5.500322509765625,0.0753600001335144,-0.2100439965724945,-0.132082000374794
1771514216339726000,5.52072607421875,0.3517000079154968,-0.1645289957523346,-0.0142639996483922
1771514216360126700,5.541126708984375,0.8150879740715027,-0.1694290041923523,0.0079969996586442
1771514216380525800,5.56152587890625,0.9588459730148315,-0.02059599943459034,-0.4081900119781494
1771514216400925000,5.581925048828125,0.4902290105819702,0.27719300985336304,-0.4503310024738312
1771514216421322500,5.602322509765625,-0.18973299860954285,0.5362499952316284,-0.06752199679613113
1771514216441717500,5.622717529296875,-0.1867849975824356,0.838316023349762,0.46822500228881836
1771514216462111200,5.643111328125,0.2332099974155426,0.9812800288200378,-0.05558399856090546
1771514216482504200,5.663504150390625,0.31743401288986206,1.2224739789962769,-0.28153300285339355
1771514216502896000,5.683896240234375,0.093019999563694,1.1684390306472778,0.0737060010433197
1771514216523288800,5.704288818359375,0.4525719881057739,1.0430749654769897,0.4783230125904083
1771514216543486200,5.724486328125,0.738116979598999,0.8227019906044006,0.7360560297966003
1771514216553784600,5.73478466796875,0.7639359831809998,0.5681639909744263,1.075974941253662
1771514216574286000,5.7552861328125,1.1880320310592651,1.0020999908447266,0.168846994638443
1771514216594692000,5.775692138671875,1.9885900020599365,0.8934149742126465,-0.6225119829177856
1771514216615093800,5.79609375,2.5630829334259033,0.5703849792480469,-0.5062469840049744
1771514216635491800,5.816491943359375,2.3409390449523926,-0.19503599405288696,-0.13664700090885162
1771514216655889700,5.8368896484375,1.9229060411453247,-0.36097800731658936,0.185916006565094
1771514216676292900,5.85729296875,1.387181043624878,-0.2649660110473633,0.34598100185394287
1771514216696697900,5.87769775390625,0.964061975479126,-0.2947080135345459,0.34341099858283997
1771514216717099300,5.898099365234375,0.739799976348877,-0.3040280044078827,0.300229012966156
1771514216737498000,5.918498046875,0.4218350052833557,-0.23235300183296204,0.1597609966993332
1771514216757897000,5.93889697265625,0.01999099925160408,-0.10141900181770325,0.2086700052022934
1771514216778296000,5.959296142578125,-0.2307640016078949,0.04266799986362457,0.19081799685955048
1771514216798697500,5.979697509765625,-0.1821260005235672,0.06831199675798416,0.459089994430542
1771514216819104800,6.000104736328125,-0.16129200160503387,0.08121199905872345,0.6650940179824829
1771514216839511800,6.02051171875,0.0659789964556694,0.2854459881782532,0.7350969910621643
1771514216859914500,6.04091455078125,0.12721599638462067,0.4263010025024414,0.6766300201416016
1771514216880313600,6.061313720703125,0.2596459984779358,0.44776999950408936,0.7017009854316711
1771514216900711000,6.0817109375,0.4641279876232147,0.58747398853302,0.7513120174407959
1771514216921111600,6.102111572265625,0.6704540252685547,0.6654189825057983,0.40473800897598267
1771514216941516000,6.12251611328125,0.8153830170631409,0.7666299939155579,0.2370229959487915
1771514216961920500,6.14292041015625,0.8993470072746277,0.6086000204086304,0.27697598934173584
1771514216982322700,6.16332275390625,1.0051100254058838,0.45412200689315796,0.4000749886035919
1771514217002723300,6.183723388671875,1.4913129806518555,0.44088101387023926,0.17405399680137634
1771514217023123000,6.204123046875,1.7990679740905762,0.29807400703430176,-0.05600300058722496
1771514217043523800,6.22452392578125,1.5904029607772827,0.20036999881267548,-0.05771699920296669
1771514217063926300,6.24492626953125,1.1568020582199097,0.0814799964427948,-0.09731999784708023
1771514217084330200,6.265330322265625,0.6523889899253845,-0.05468299984931946,-0.25763899087905884
1771514217104733200,6.285733154296875,0.21893799304962158,0.05160199850797653,-0.43637898564338684
1771514217125133000,6.306133056640625,0.033688999712467194,0.057861000299453735,-0.5339080095291138
1771514217145531600,6.32653173828125,0.14434200525283813,0.06336499750614166,-0.008923999965190887
1771514217165930500,6.346930419921875,0.045618001371622086,-0.20569300651550293,0.17886799573898315
1771514217186333000,6.3673330078125,-0.20865699648857117,-0.054924000054597855,0.10310699790716171
1771514217206737200,6.387737060546875,-0.4630019962787628,0.1757279932498932,0.19047200679779053
1771514217227136500,6.408136474609375,-0.33283600211143494,0.2716180086135864,-0.07339700311422348
1771514217247534600,6.42853466796875,0.4691469967365265,0.28620800375938416,-0.7137590050697327
1771514217267933400,6.448933349609375,1.2185419797897339,0.19254599511623383,-1.5146750211715698
1771514217288330800,6.469330810546875,1.745162010192871,-0.10549599677324295,-1.7773070335388184
1771514217308729000,6.48972900390625,2.2001850605010986,-0.37209299206733704,-1.1994249820709229
1771514217329131000,6.510131103515625,2.2567241191864014,-0.43596601486206055,-0.26744401454925537
1771514217349532400,6.530532470703125,1.897344946861267,-0.4030509889125824,-0.2717759907245636
1771514217369932000,6.55093212890625,1.422333002090454,0.1289149969816208,-0.34541600942611694
1771514217390329600,6.57132958984375,0.6170610189437866,0.4643700122833252,-0.712207019329071
1771514217410724400,6.591724365234375,0.1037449985742569,0.49151700735092163,-1.4830950498580933
1771514217431119400,6.612119384765625,0.5679380297660828,0.46722400188446045,-1.5852190256118774
1771514217451515000,6.632514892578125,0.999455988407135,0.22589799761772156,-1.2616100311279297
1771514217471911400,6.652911376953125,0.7554090023040771,0.3422290086746216,-0.13026000559329987
1771514217492311600,6.6733115234375,0.08380699902772903,0.38019299507141113,0.49251800775527954
1771514217512716500,6.693716552734375,-0.4107449948787689,0.4803450107574463,0.7485290169715881
1771514217533123000,6.714123046875,-1.3194630146026611,1.012384057044983,1.04059898853302
1771514217553528300,6.7345283203125,-1.8954490423202515,1.2186269760131836,0.48502200841903687
1771514217573929500,6.754929443359375,-1.3719120025634766,1.2656190395355225,0.21950000524520874
1771514217594327300,6.775327392578125,-0.3656109869480133,0.7116010189056396,0.2587890028953552
1771514217614724400,6.795724365234375,-0.09186799824237823,0.6411340236663818,1.1554399728775024
1771514217635121700,6.81612158203125,-0.5632179975509644,1.1681480407714844,1.7528549432754517
1771514217655521500,6.836521484375,-1.241987943649292,1.5642290115356445,1.861672043800354
1771514217675922400,6.85692236328125,-1.6775599718093872,1.5750069618225098,1.070199966430664
1771514217696320300,6.8773203125,-0.9758679866790771,0.9074440002441406,-0.3917900025844574
1771514217716715500,6.897715576171875,1.4259769916534424,0.15450400114059448,-1.5739879608154297
1771514217737112000,6.918112060546875,3.601586103439331,-0.8497610092163086,-1.3725759983062744
1771514217757510700,6.9385107421875,3.9818270206451416,-1.9110950231552124,-0.2847000062465668
1771514217777908500,6.958908447265625,3.1769649982452393,-2.34676194190979,0.7214570045471191
1771514217798305000,6.979304931640625,2.547344923019409,-2.0865209102630615,0.8460100293159485
1771514217818701600,6.99970166015625,2.469933032989502,-1.2268530130386353,-0.022537000477313995
1771514217839099400,7.020099365234375,1.7307790517807007,-0.3317260146141052,-0.7342429757118225
1771514217859497700,7.040497802734375,0.38160398602485657,0.06855800002813339,-1.3124239444732666
1771514217879896300,7.060896240234375,-0.5673120021820068,0.09247999638319016,-1.589709997177124
1771514217900295700,7.081295654296875,-0.6157119870185852,-0.008705999702215195,-1.5390069484710693
1771514217920696300,7.1016962890625,0.0865039974451065,-0.010839000344276428,-1.4672960042953491
1771514217941096000,7.122095947265625,0.5302450060844421,0.033959001302719116,-1.0310590267181396
1771514217961490000,7.142489990234375,-0.125450000166893,0.15602299571037292,-0.32049399614334106
1771514217981884700,7.162884765625,-1.0227910280227661,0.4577319920063019,0.38218799233436584
1771514218002281000,7.183281005859375,-1.7966639995574951,1.0124200582504272,0.7950059771537781
1771514218022678000,7.203677978515625,-1.554252028465271,2.036442995071411,0.9815149903297424
1771514218043075800,7.224075927734375,-0.5044900178909302,2.614763021469116,0.7980390191078186
1771514218063474400,7.244474365234375,-0.3258099853992462,2.569991111755371,0.1495569944381714
1771514218083872300,7.264872314453125,-1.0990970134735107,1.7668440341949463,-0.8938530087471008
1771514218104266000,7.285265869140625,-0.9319189786911011,0.4116069972515106,-2.0337350368499756
1771514218124658400,7.305658447265625,1.3892719745635986,-0.21549999713897705,-2.0563900470733643
1771514218145049600,7.326049560546875,3.5490620136260986,-0.17751599848270416,-0.9982159733772278
1771514218165440000,7.34643994140625,3.435513973236084,0.010135999880731106,0.561922013759613
1771514218185833000,7.3668330078125,1.727381944656372,0.4762589931488037,1.2522900104522705
1771514218206228700,7.387228759765625,0.10179200023412704,0.6893690228462219,0.7569630146026611
1771514218226622500,7.40762255859375,0.5548239946365356,0.21367999911308289,-0.755482017993927
1771514218247014000,7.428013916015625,1.481834053993225,-0.3624959886074066,-1.4385709762573242
1771514218267407600,7.44840771484375,1.1482510566711426,-0.1456259936094284,-0.4722039997577667
1771514218287803100,7.46880322265625,-0.48194199800491333,-0.17144900560379028,0.19562600553035736
1771514218308196900,7.48919677734375,-1.593701958656311,-0.16875800490379333,0.5414149761199951
1771514218328587800,7.509587890625,-1.1790670156478882,0.24463500082492828,0.6467390060424805
1771514218348979500,7.5299794921875,-0.08330900222063065,0.453110009431839,0.5282359719276428
1771514218369373700,7.550373779296875,-0.0815190002322197,0.4272159934043884,0.9589440226554871
1771514218389770500,7.5707705078125,-0.9752029776573181,0.7084580063819885,1.2652289867401123
1771514218410168000,7.59116796875,-1.0000029802322388,0.9407240152359009,0.8575999736785889
1771514218430562000,7.61156201171875,-0.01765500009059906,0.7491620182991028,0.1453769952058792
1771514218450955000,7.631955078125,1.114650011062622,0.2892709970474243,-0.09282299876213074
1771514218471350000,7.65235009765625,1.55104398727417,-0.008748999796807766,0.19409500062465668
1771514218491744000,7.672743896484375,1.6148439645767212,-0.4296579957008362,0.11776400357484818
1771514218512138200,7.69313818359375,1.3915820121765137,-0.33199000358581543,-0.058775998651981354
1771514218532536000,7.7135361328125,1.4785219430923462,0.04146900027990341,-0.04878599941730499
1771514218552934400,7.733934326171875,1.0738619565963745,-0.07266899943351746,-0.21485400199890137
1771514218573329200,7.7543291015625,0.3795570135116577,-0.21755899488925934,-0.1310500055551529
1771514218593723000,7.774722900390625,0.980122983455658,-0.0961960032582283,0.016390999779105186
1771514218614115800,7.79511572265625,2.2765650749206543,-0.36087700724601746,-0.36981201171875
1771514218634509000,7.815509033203125,0.6792380213737488,-0.6379179954528809,-0.9017800092697144
1771514218654903800,7.83590380859375,-1.8892199993133545,0.0660180002450943,-0.39799800515174866
1771514218675299300,7.85629931640625,-2.6401729583740234,0.8759570121765137,0.05906600132584572
1771514218695695600,7.876695556640625,-1.0944390296936035,0.7223849892616272,-0.09636200219392776
1771514218716091100,7.897091064453125,0.9970290064811707,-0.14173400402069092,-0.49722999334335327
1771514218736484600,7.917484619140625,1.8937679529190063,-1.0446879863739014,-0.8486319780349731
1771514218756877300,7.937877197265625,1.0963770151138306,-0.7372320294380188,-0.48468801379203796
1771514218777269000,7.95826904296875,0.39572200179100037,-0.7207139730453491,0.15682600438594818
1771514218797658000,7.978658203125,0.29556700587272644,-0.969527006149292,0.7945029735565186
1771514218818050800,7.99905078125,0.9766240119934082,-0.9615679979324341,0.7066869735717773
1771514218838447900,8.01944775390625,2.3684730529785156,-0.8511599898338318,-0.1043429970741272
1771514218858843600,8.03984375,2.510364055633545,-0.7150329947471619,-0.5462089776992798
1771514218879240400,8.060240478515626,1.8467780351638794,-0.600072979927063,-0.5933060050010681
1771514218899638500,8.080638427734375,0.983165979385376,-0.3237529993057251,-0.6933190226554871
1771514218920032800,8.10103271484375,0.3988319933414459,0.06639599800109863,-1.118641972541809
1771514218940423400,8.12142333984375,-0.14468400180339813,0.22546200454235077,-1.3889349699020386
1771514218960814800,8.14181494140625,-0.1717730015516281,0.28543099761009216,-1.459043025970459
1771514218981207800,8.162207763671875,-0.14043599367141724,0.2904289960861206,-1.418267011642456
1771514219001600000,8.18260009765625,-0.1735129952430725,0.28474900126457214,-1.1554540395736694
1771514219021991200,8.2029912109375,-0.23359300196170807,0.42948201298713684,-0.612375020980835
1771514219042387200,8.22338720703125,-0.06841599941253662,0.5426939725875854,0.07768400013446808
1771514219062786000,8.2437861328125,0.5635079741477966,0.4029169976711273,0.6324120163917542
1771514219083182000,8.26418212890625,1.1946669816970825,0.3419879972934723,0.9173939824104309
1771514219103576800,8.284576904296875,1.5311959981918335,0.208515003323555,0.8506860136985779
1771514219123970000,8.304969970703125,1.886549949645996,0.381633996963501,0.49415600299835205
1771514219144362200,8.3253623046875,1.6771990060806274,0.449411004781723,-0.3571000099182129
1771514219164754400,8.34575439453125,0.8547379970550537,0.4620090126991272,-1.029155969619751
1771514219185148200,8.366148193359376,0.44605299830436707,-0.08662500232458115,-1.4936439990997314
1771514219205540900,8.386540771484375,0.8821340203285217,-0.5675299763679504,-0.8338580131530762
1771514219225933600,8.40693359375,1.8470209836959839,-0.8239859938621521,0.2461860030889511
1771514219246333000,8.4273330078125,2.0547029972076416,-0.8263159990310669,0.9438179731369019
1771514219266733300,8.4477333984375,1.5080100297927856,-0.4697279930114746,1.2778409719467163
1771514219287130000,8.468130126953126,0.9658010005950928,-0.20280200242996216,1.1301989555358887
1771514219307529700,8.48852978515625,0.577148973941803,-0.15596899390220642,0.3218289911746979
1771514219327930000,8.50893017578125,0.3369939923286438,-0.006800000090152025,-0.18629300594329834
1771514219348330200,8.529330322265626,0.027658000588417053,0.38112398982048035,-0.2875770032405853
1771514219368730000,8.549730224609375,-0.2647770047187805,0.5437949895858765,-0.4015420079231262
1771514219389124600,8.57012451171875,-0.7305920124053955,0.6690120100975037,-0.35605600476264954
1771514219409518300,8.590518310546875,-1.3889329433441162,0.9020929932594299,-0.07727299630641937
1771514219429913300,8.610913330078125,-1.6375449895858765,1.1453369855880737,0.13139399886131287
1771514219450305800,8.631305908203124,-1.0608010292053223,1.2774419784545898,0.4766690135002136
1771514219470699500,8.651699462890624,0.4233050048351288,1.1223009824752808,0.0384569987654686
1771514219491099000,8.672098876953125,1.3065659999847412,0.7657849788665771,-0.2841489911079407
1771514219511497000,8.6924970703125,1.3945749998092651,0.6641290187835693,-0.004976999945938587
1771514219531892000,8.71289208984375,1.1101219654083252,0.6380810141563416,0.5329809784889221
1771514219552290000,8.7332900390625,0.6014440059661865,0.2793959975242615,0.6794210076332092
1771514219572689400,8.753689453125,0.5482779741287231,0.23808400332927704,0.8356329798698425
1771514219593086200,8.774086181640625,1.0382540225982666,0.22199399769306183,0.2724289894104004
1771514219613483300,8.794483154296875,1.1441949605941772,-0.08587399870157242,0.11322999745607376
1771514219633882600,8.814882568359375,0.7661020159721375,-0.4460279941558838,0.37998801469802856
1771514219654280200,8.8352802734375,0.04321499913930893,-0.43136098980903625,0.9481930136680603
1771514219674675000,8.855675048828125,-0.2331639975309372,-0.3994770050048828,0.5265439748764038
1771514219695070500,8.876070556640625,-0.02910800091922283,-0.43033599853515625,-0.1552329957485199
1771514219715465700,8.8964658203125,0.18301799893379211,-0.7771360278129578,-0.4346660077571869
1771514219735861500,8.916861572265624,-0.1413940042257309,-0.9319350123405457,-0.14717300236225128
1771514219756259600,8.937259521484375,-0.6027870178222656,-0.5298749804496765,0.20271100103855133
1771514219776656400,8.957656494140625,-0.858797013759613,-0.4297429919242859,-0.13387799263000488
1771514219797052700,8.978052734375,-0.9438369870185852,-0.26891401410102844,-0.28783300518989563
1771514219817450200,8.9984501953125,-1.0686529874801636,0.3238070011138916,-0.3089759945869446
1771514219837849000,9.01884912109375,-0.5567870140075684,0.6797580122947693,-0.2098969966173172
1771514219858248400,9.03924853515625,0.7558709979057312,0.21413099765777588,0.11165499687194824
1771514219878646800,9.059646728515625,1.6587320566177368,-0.24542400240898132,0.6841199994087219
1771514219899043600,9.080043701171874,1.6846270561218262,-0.051711998879909515,0.6980220079421997
1771514219919439000,9.100439208984374,1.2634090185165405,0.1332399994134903,0.2651680111885071
1771514219939834600,9.120834716796875,1.7087949514389038,-0.061758000403642654,0.10448300093412399
1771514219960233200,9.141233154296875,2.755242109298706,-0.4666520059108734,-0.13252300024032593
1771514219980633300,9.16163330078125,2.8762030601501465,-0.7931560277938843,-0.031091000884771347
1771514220001033500,9.182033447265624,1.7488609552383423,-1.1182609796524048,0.046209000051021576
1771514220021432600,9.2024326171875,1.2787100076675415,-1.2739150524139404,0.6226069927215576
1771514220041833200,9.222833251953125,1.4313600063323975,-1.3660000562667847,0.937620997428894
1771514220062233900,9.24323388671875,1.2446810007095337,-1.2288700342178345,0.7073330283164978
1771514220082633700,9.2636337890625,0.21341900527477264,-0.8633700013160706,0.3707219958305359
1771514220103036200,9.2840361328125,-0.8932279944419861,-0.38386398553848267,0.11643800139427185
1771514220123439400,9.304439453125,-1.4540990591049194,-0.19408799707889557,-0.39555200934410095
1771514220143841500,9.324841552734375,-0.9150050282478333,-0.5181530117988586,-0.6605690121650696
1771514220164242200,9.3452421875,-0.9806089997291565,-0.8164340257644653,-0.7781789898872375
1771514220184640500,9.365640625,-1.8641259670257568,-0.7103530168533325,-0.5496379733085632
1771514220205034500,9.386034423828125,-2.349134922027588,-0.7230029702186584,-0.3117089867591858
1771514220225428200,9.40642822265625,-2.515191078186035,-0.9656509757041931,0.005262000020593405
1771514220245824000,9.426823974609375,-1.9776259660720825,-0.8697080016136169,-0.3620089888572693
1771514220266217500,9.447217529296875,-0.13375599682331085,-0.794963002204895,-0.6692969799041748
1771514220286612200,9.4676123046875,0.049490999430418015,-2.4621999263763428,-2.880276918411255
1771514220307009000,9.488009033203125,-1.4845919609069824,-0.6139510273933411,-0.3510819971561432
1771514220327404300,9.508404296875,-0.08004199713468552,0.5722609758377075,2.548013925552368
1771514220347796200,9.528796142578125,5.459074020385742,-0.8368939757347107,1.1590399742126465
1771514220368185900,9.549185791015624,8.525138854980469,0.022704999893903732,1.4722340106964111
1771514220388582700,9.569582763671875,6.68404483795166,0.450654000043869,1.0744010210037231
1771514220408983800,9.58998388671875,6.461337089538574,0.40042099356651306,0.18166300654411316
1771514220429383700,9.6103837890625,5.399162769317627,0.6019060015678406,0.8193320035934448
1771514220449780500,9.630780517578126,2.8723230361938477,0.3381659984588623,1.4239139556884766
1771514220470174000,9.651174072265626,0.8304780125617981,0.2639569938182831,0.6214560270309448
1771514220490566100,9.671566162109375,-0.2622950077056885,0.6600139737129211,-0.1363220065832138
1771514220510961700,9.691961669921875,-0.8387690186500549,1.0991339683532715,-0.20232300460338593
1771514220531361300,9.712361328125,-1.735298991203308,1.249418020248413,0.19573000073432922
1771514220551761000,9.732760986328126,-1.9294739961624146,0.8198369741439819,0.47183001041412354
1771514220572160500,9.753160400390625,0.2609899938106537,0.3053230047225952,0.009065000340342522
1771514220592563700,9.773563720703125,1.5557140111923218,0.06962399929761887,-0.9539240002632141
1771514220612968700,9.79396875,0.3203530013561249,0.31426700949668884,-1.374572992324829
1771514220633371600,9.81437158203125,-1.4664429426193237,0.938139021396637,-0.9064329862594604
1771514220653770200,9.834770263671874,-1.4855190515518188,1.1382709741592407,-0.4139150083065033
1771514220674167000,9.8551669921875,0.6844789981842041,0.5469589829444885,-0.4523110091686249
1771514220694567200,9.875567138671874,2.5642640590667725,-0.11765900254249573,-0.7205820083618164
1771514220714967600,9.895967529296875,2.963459014892578,0.5916309952735901,-0.9959409832954407
1771514220735366100,9.9163662109375,2.0138421058654785,0.6263039708137512,-1.5368850231170654
1771514220755764700,9.9367646484375,1.3350030183792114,0.6545649766921997,-1.4018950462341309
1771514220776164000,9.9571640625,-0.1548909991979599,0.8874670267105103,-0.9057599902153015
1771514220796563700,9.977563720703126,-1.6577949523925781,0.7416409850120544,-0.516523003578186
1771514220816964600,9.997964599609375,-1.5282609462738037,1.6368730068206787,1.1632030010223389
1771514220837366500,10.018366455078125,-1.2977019548416138,1.8853379487991333,1.9029430150985718
1771514220857764900,10.038764892578126,-0.22891399264335632,1.4559379816055298,2.299846887588501
1771514220878162400,10.059162353515624,-0.30588600039482117,1.2094130516052246,0.9937859773635864
1771514220898564000,10.079564208984374,-0.4178299903869629,1.2344030141830444,-0.45525500178337097
1771514220918969000,10.099968994140625,-0.7616810202598572,0.9536420106887817,-0.8561819791793823
1771514220939371500,10.12037158203125,-0.8465120196342468,0.8364830017089844,-1.1910619735717773
1771514220959772700,10.140772705078126,0.46843698620796204,0.2512739896774292,-0.8440939784049988
1771514220980176400,10.16117626953125,2.3885691165924072,-0.45809099078178406,1.1095340251922607
1771514221000580600,10.18158056640625,1.7827969789505005,-1.7616380453109741,0.8725839853286743
1771514221020983000,10.201983154296874,1.7893270254135132,-1.3849109411239624,0.05948600172996521
1771514221041382400,10.22238232421875,1.8398289680480957,-0.8880869746208191,-0.904865026473999
1771514221061781200,10.24278125,1.5462969541549683,-0.7442539930343628,-1.5066059827804565
1771514221082180900,10.263180908203125,2.0437440872192383,-0.654708981513977,-1.417930006980896
1771514221102579000,10.283578857421874,2.5197629928588867,-1.1479159593582153,-1.3130520582199097
1771514221122975700,10.303975830078125,1.5692299604415894,-1.1002449989318848,0.04435599967837334
1771514221143373600,10.32437353515625,0.33932098746299744,-0.5622529983520508,0.9322199821472168
1771514221163771400,10.344771484375,-0.5778279900550842,-0.07526999711990356,0.7327139973640442
1771514221184168400,10.36516845703125,-0.7539979815483093,0.5075759887695312,0.6844879984855652
1771514221204565200,10.385565185546875,-0.5031750202178955,0.47064200043678284,0.4232049882411957
1771514221224961000,10.4059609375,0.3896850049495697,0.3645760118961334,0.053867001086473465
1771514221245357300,10.426357421875,0.9883540272712708,0.5712080001831055,-0.3279869854450226
1771514221265756700,10.446756591796875,0.4862470030784607,0.5232470035552979,-0.3101939857006073
1771514221286156500,10.467156494140625,-0.1817999929189682,0.40441998839378357,-0.2676819860935211
1771514221306555000,10.487554931640625,-0.10550499707460403,0.2499690055847168,-0.2847369909286499
1771514221326953500,10.507953369140624,0.7048559784889221,-0.030789000913500786,-0.4146290123462677
1771514221347352300,10.528352294921875,1.7643070220947266,-0.3898470103740692,-0.1214200034737587
1771514221367748900,10.548748779296876,2.190661907196045,-0.42541199922561646,0.5718200206756592
1771514221388144400,10.569144287109374,1.6174579858779907,-0.2611730098724365,0.6844760179519653
1771514221408543500,10.58954345703125,0.5260170102119446,-0.05774400010704994,0.1954679936170578
1771514221428943000,10.609943115234374,-0.040608000010252,0.19144199788570404,-0.23430800437927246
1771514221449342700,10.6303427734375,-0.4105429947376251,0.5262280106544495,-0.5199270248413086
1771514221469743900,10.650743896484375,-0.9532679915428162,0.6050800085067749,-0.7168499827384949
1771514221490144800,10.671144775390625,-0.49094200134277344,0.3645859956741333,-0.5664839744567871
1771514221510547500,10.69154736328125,0.32080399990081787,0.018724000081419945,-0.33981800079345703
1771514221530947800,10.71194775390625,0.4364039897918701,0.21752500534057617,0.2843970060348511
1771514221551344400,10.732344482421874,0.2432119995355606,0.36038801074028015,0.02708500064909458
1771514221571741700,10.75274169921875,0.32218700647354126,0.4161039888858795,-0.5885080099105835
1771514221592144000,10.773143798828125,0.44999098777770996,0.5438410043716431,-0.7915890216827393
1771514221612548600,10.793548583984375,0.4195770025253296,0.1724890023469925,-0.8850929737091064
1771514221632948700,10.81394873046875,0.19917500019073486,0.13647300004959106,-0.6044939756393433
1771514221653348000,10.83434814453125,0.5239959955215454,-0.11589299887418747,-0.840116024017334
1771514221673748200,10.854748291015625,1.191303014755249,-0.3427000045776367,-1.3194429874420166
1771514221694143500,10.8751435546875,1.556892991065979,-0.3856489956378937,-1.209826946258545
1771514221714537700,10.895537841796875,1.307816982269287,-0.44647398591041565,-0.6731320023536682
1771514221734931200,10.91593115234375,0.6078810095787048,-0.2506609857082367,-0.052181001752614975
1771514221755326700,10.93632666015625,0.00014699999883305281,0.09280599653720856,-0.2922919988632202
1771514221775722000,10.956721923828125,-0.048902999609708786,0.35611701011657715,-0.739982008934021
1771514221796117000,10.977116943359375,0.015475000254809856,0.5872340202331543,-0.5103390216827393
1771514221816513800,10.997513671875,-0.2415110021829605,0.6982129812240601,0.16761499643325806
1771514221836908300,11.017908203125,-0.1000640019774437,0.6580029726028442,0.415134996175766
1771514221857304000,11.038303955078124,0.837867021560669,0.3288689851760864,0.44346898794174194
1771514221877703400,11.058703369140625,1.4497209787368774,0.014712000265717506,0.6052340269088745
1771514221898104600,11.0791044921875,1.101546049118042,-0.008258000016212463,0.8721020221710205
1771514221918508800,11.0995087890625,0.5991219878196716,0.5302690267562866,0.8518279790878296
1771514221938913800,11.119913818359375,0.17736299335956573,1.0012739896774292,0.3203650116920471
1771514221959318300,11.140318359375,0.4463590085506439,0.535198986530304,-0.7080979943275452
1771514221979722500,11.160722412109376,1.4874680042266846,0.04623999819159508,-1.1736669540405273
1771514222000124200,11.181124267578125,1.886929988861084,-0.10109999775886536,-0.5002260208129883
1771514222020523500,11.2015234375,1.0489970445632935,-0.4838950037956238,-0.09620200097560883
1771514222040921300,11.22192138671875,0.8307390213012695,-0.5155730247497559,-0.13568900525569916
1771514222061320400,11.242320556640625,0.8495650291442871,-0.21200700104236603,0.02609200030565262
1771514222081716500,11.262716552734375,0.06868100166320801,-0.04429199919104576,0.5459010004997253
1771514222102111500,11.283111572265625,-0.9510290026664734,0.14897799491882324,1.0009310245513916
1771514222122507800,11.3035078125,-1.3319239616394043,0.28125,0.8124439716339111
1771514222142900200,11.323900146484375,-0.8850359916687012,0.006275000050663948,-0.05436300113797188
1771514222163292700,11.344292724609375,0.09841199964284897,0.17506299912929535,-0.6375809907913208
1771514222183688200,11.364688232421875,0.8950049877166748,0.332863986492157,-0.43123599886894226
1771514222204082400,11.38508251953125,1.1983890533447266,0.1542070060968399,-0.6102190017700195
1771514222224477700,11.405477783203125,1.9878549575805664,0.2343350052833557,-0.5059300065040588
1771514222244876300,11.425876220703126,1.9403280019760132,0.29585000872612,-0.4368869960308075
1771514222265276200,11.446276123046875,1.1155630350112915,0.6942629814147949,-0.25092899799346924
1771514222285671700,11.466671630859375,0.044787000864744186,1.177482008934021,-0.1478540003299713
1771514222306064000,11.48706396484375,-0.5995510220527649,1.439663052558899,-0.16568100452423096
1771514222326455600,11.50745556640625,-0.04296400025486946,1.119994044303894,-0.2757439911365509
1771514222346847200,11.52784716796875,1.3830130100250244,0.3382149934768677,-0.2326360046863556
1771514222367241200,11.5482412109375,2.4299659729003906,-0.597383975982666,-0.1867399960756302
1771514222387637000,11.568636962890626,2.7426319122314453,-1.1461540460586548,0.21813200414180756
1771514222408031500,11.589031494140626,1.740921974182129,-1.0246000289916992,0.8419569730758667
1771514222428425200,11.60942529296875,-0.4070320129394531,-0.4728110134601593,0.6634100079536438
1771514222448822300,11.629822265625,-1.6031739711761475,0.28712499141693115,-0.04038900136947632
1771514222469217800,11.6502177734375,-1.4514240026474,0.6201959848403931,-0.8921030163764954
1771514222489611300,11.670611328125,-0.7515379786491394,0.15864500403404236,-1.763882040977478
1771514222510005500,11.691005615234374,0.29272401332855225,-0.5006920099258423,-2.0306689739227295
1771514222530398200,11.711398193359376,0.3140139877796173,-0.4981350004673004,-0.9654470086097717
1771514222550790700,11.731790771484375,-1.2757710218429565,-0.12382300198078156,0.27041301131248474
1771514222571184400,11.752184326171875,-2.536604881286621,0.23592500388622284,0.15721799433231354
1771514222591578600,11.77257861328125,-1.3015910387039185,0.3622620105743408,-0.18071800470352173
1771514222611972000,11.79297216796875,0.29713600873947144,0.765828013420105,0.12257900089025497
1771514222632364800,11.81336474609375,-0.25546300411224365,1.6556830406188965,1.1419860124588013
1771514222652755700,11.833755615234375,-1.3867180347442627,2.2612669467926025,1.7408790588378906
1771514222673148400,11.8541484375,-1.393239974975586,2.579293966293335,1.4727280139923096
1771514222693543400,11.87454345703125,-1.0927820205688477,1.6641379594802856,-0.7311379909515381
1771514222713936100,11.89493603515625,1.7235219478607178,0.21552500128746033,-2.0462329387664795
1771514222734328600,11.91532861328125,5.719045162200928,-1.6029009819030762,-1.0283039808273315
1771514222754723300,11.935723388671875,7.020798206329346,-2.472646951675415,0.9219139814376831
1771514222775118800,11.956118896484375,5.12814998626709,-2.117969036102295,2.253432035446167
1771514222795512300,11.97651220703125,2.512589931488037,-1.2355329990386963,1.9309669733047485
1771514222815904800,11.99690478515625,0.08943600207567215,-0.7523419857025146,0.659417986869812
1771514222836296400,12.01729638671875,-0.6099219918251038,-0.6949040293693542,-0.3518109917640686
1771514222856688400,12.0376884765625,0.8207290172576904,-0.9615849852561951,-0.9662160277366638
1771514222877079300,12.058079345703124,1.0042929649353027,-1.0225869417190552,-0.7927349805831909
1771514222897471200,12.07847119140625,-1.2502199411392212,-0.8452010154724121,-0.3196049928665161
1771514222917865700,12.09886572265625,-3.800018072128296,-0.47415900230407715,0.054774001240730286
1771514222938261800,12.11926171875,-4.320298194885254,-0.37518900632858276,0.018641000613570213
1771514222958659600,12.13965966796875,-2.0036110877990723,-0.7070099711418152,-0.5754500031471252
1771514222979058200,12.16005810546875,1.7442400455474854,-0.26392099261283875,-0.9151859879493713
1771514222999458000,12.1804580078125,0.6313179731369019,2.7119269371032715,1.2572740316390991
1771514223019854300,12.200854248046875,-3.748296022415161,4.401155948638916,1.1393909454345703
1771514223040246800,12.221246826171875,-2.2968170642852783,2.6887619495391846,-1.651350975036621
1771514223060642000,12.24164208984375,3.9224350452423096,-1.172163963317871,-5.794065952301025
1771514223081040600,12.26204052734375,10.12877368927002,-3.169581890106201,-3.9080910682678223
1771514223101439200,12.282439208984375,11.294015884399414,-2.6469969749450684,0.7528970241546631
1771514223121836800,12.3028369140625,7.3035712242126465,-1.398710012435913,2.684864044189453
1771514223142235100,12.323235107421874,1.8811919689178467,-0.4041459858417511,1.7074589729309082
1771514223162633200,12.34363330078125,-1.5434659719467163,0.7167389988899231,0.142645001411438
1771514223183030500,12.364030517578126,-2.9714341163635254,1.111814022064209,-0.711965024471283
1771514223203432700,12.3844326171875,-3.1049609184265137,1.0094029903411865,-0.13901300728321075
1771514223223840300,12.40484033203125,-2.9402658939361572,0.6938430070877075,0.45534101128578186
1771514223244246000,12.42524609375,-3.253185987472534,0.3769890069961548,0.5219879746437073
1771514223264649200,12.445649169921875,-3.376391887664795,0.2814750075340271,0.8292909860610962
1771514223285054000,12.466053955078126,-2.2817978858947754,0.26897600293159485,0.9948469996452332
1771514223305460200,12.486460205078124,-0.6692109704017639,0.5940960049629211,0.45378899574279785
1771514223325865500,12.506865478515625,-0.4950770139694214,1.3921730518341064,-0.3217790126800537
1771514223346272500,12.5272724609375,-1.2278729677200317,2.0735180377960205,-0.2451779991388321
1771514223366677500,12.547677490234374,-1.5188380479812622,1.8287030458450317,-0.011473000049591064
1771514223387077000,12.5680771484375,-0.11091399937868118,1.4716620445251465,0.08182000368833542
1771514223407480300,12.588480224609375,1.5584980249404907,1.126099944114685,-0.28097599744796753
1771514223427887600,12.6088876953125,2.779278039932251,0.29750001430511475,-1.0276299715042114
1771514223448292400,12.629292236328125,3.2155420780181885,-0.2543030083179474,-1.1255249977111816
1771514223468692500,12.6496923828125,2.468000888824463,-0.025925999507308006,-0.12238100171089172
1771514223489090300,12.67009033203125,0.5429279804229736,0.10117500275373459,0.259335994720459
1771514223509487400,12.6904873046875,-0.5998420119285583,0.10136400163173676,0.11058299988508224
1771514223529884200,12.71088427734375,-0.3168570101261139,0.15429699420928955,-0.04252399876713753
1771514223550285600,12.73128564453125,0.2512269914150238,0.0692249983549118,0.2076449990272522
1771514223570695000,12.75169482421875,-0.01840599998831749,-0.12115500122308731,0.7071679830551147
1771514223591101200,12.77210107421875,-0.46573299169540405,-0.3952839970588684,1.2541470527648926
1771514223611500800,12.792500732421875,-0.2523620128631592,-0.9364479780197144,1.5620479583740234
1771514223631901700,12.812901611328124,0.31474000215530396,-0.8569570183753967,1.2316069602966309
1771514223652305400,12.833305419921874,0.06040399894118309,-0.01127300038933754,1.1276060342788696
1771514223672712400,12.85371240234375,-0.15944300591945648,0.3739140033721924,0.301921010017395
1771514223693119200,12.874119140625,1.6500409841537476,0.2366030067205429,-0.8935750126838684
1771514223713526000,12.894526123046875,4.175093173980713,-0.8936859965324402,-1.6944429874420166
1771514223733932000,12.91493212890625,5.641750812530518,-1.8258819580078125,-1.4831860065460205
1771514223754336800,12.935336669921876,4.772887229919434,-1.1089890003204346,0.2161490023136139
1771514223774740000,12.955739990234376,1.0053629875183105,0.054600998759269714,1.1456400156021118
1771514223795139600,12.9761396484375,-1.9540050029754639,0.9474570155143738,0.939145028591156
1771514223815538200,12.9965380859375,-2.1862590312957764,1.271270990371704,0.34934601187705994
1771514223835938300,13.016938232421875,-1.0614010095596313,0.9569029808044434,0.20442000031471252
1771514223856338000,13.037337890625,-0.4137290120124817,0.28961101174354553,0.08128099888563156
1771514223876737000,13.057737060546875,-0.3708299994468689,-0.3322870135307312,-0.11087899655103683
1771514223897137700,13.0781376953125,0.599291980266571,-0.5373650193214417,-0.0006520000169984996
1771514223917537300,13.098537353515624,1.4067389965057373,-0.5806800127029419,0.27326101064682007
1771514223937934600,13.1189345703125,1.6923630237579346,-0.5266559720039368,0.1808760017156601
1771514223958331000,13.139330810546875,1.5160529613494873,-0.7376940250396729,-0.12895900011062622
1771514223978726000,13.159725830078125,1.76882004737854,-0.9306010007858276,-0.03490100055932999
1771514223999118600,13.18011865234375,1.5535889863967896,-0.9761379957199097,0.5336359739303589
1771514224019511300,13.20051123046875,1.0104819536209106,-0.9225149750709534,0.9005609750747681
1771514224039904300,13.220904296875,0.7837510108947754,-0.6645969748497009,0.5963339805603027
1771514224060297000,13.241296875,0.36791399121284485,-0.40827101469039917,0.07829900085926056
1771514224080688000,13.261688232421875,-0.09994199872016907,-0.26786598563194275,-0.5981960296630859
1771514224101079600,13.28207958984375,0.05611199885606766,-0.18745799362659454,-0.7040640115737915
1771514224121473000,13.30247314453125,0.4318079948425293,-0.18293699622154236,-0.4664030075073242
1771514224141863000,13.32286279296875,0.6838669776916504,-0.11070699989795685,-0.20134399831295013
1771514224162256100,13.343256103515625,0.7022910118103027,0.0011220000451430678,-0.18095700442790985
1771514224182653400,13.3636533203125,0.7690849900245667,0.08168300241231918,-0.09572400152683258
1771514224203048700,13.384048583984375,0.7984529733657837,0.1878959983587265,0.3479419946670532
1771514224223445200,13.4044453125,0.4030590057373047,0.4130670130252838,0.7600340247154236
1771514224243840300,13.42484033203125,-0.03282200172543526,0.6198130249977112,0.7039939761161804
1771514224264230700,13.445230712890625,-0.45042499899864197,0.8052480220794678,0.4107159972190857
1771514224284621300,13.465621337890624,-0.24373500049114227,0.7405710220336914,0.39580899477005005
1771514224305013500,13.486013427734376,0.4353649914264679,0.39912399649620056,0.42086198925971985
1771514224325407700,13.50640771484375,1.047624945640564,0.05743600055575371,0.42495399713516235
1771514224345803500,13.526803466796874,1.2592129707336426,-0.15223099291324615,0.23267300426959991
1771514224366197000,13.547197021484376,1.1396640539169312,-0.1171559989452362,0.054531000554561615
1771514224386589700,13.567589599609375,0.9854260087013245,-0.1046999990940094,0.024491000920534134
1771514224406982700,13.587982666015625,0.931473970413208,-0.053867001086473465,-0.018882999196648598
1771514224427379000,13.60837890625,0.4648840129375458,0.10878799855709076,0.1546739935874939
1771514224447778300,13.6287783203125,-0.29934701323509216,0.31789299845695496,0.04648900032043457
1771514224468178700,13.6491787109375,-0.2447109967470169,0.5315250158309937,-0.322393000125885
1771514224488577500,13.66957763671875,-0.2919839918613434,0.6939200162887573,-0.6043040156364441
1771514224508974000,13.68997412109375,-0.247298002243042,0.4993340075016022,-0.7263659834861755
1771514224529371600,13.71037158203125,0.24075299501419067,0.07500100135803223,-0.6811760067939758
1771514224549770800,13.730770751953125,0.6962360143661499,-0.459553986787796,-0.5768640041351318
1771514224570172000,13.751171875,1.1615400314331055,-0.9410359859466553,-0.4496400058269501
1771514224590574000,13.771573974609375,1.8310320377349854,-1.1943479776382446,-0.030424000695347786
1771514224610975000,13.79197509765625,2.128582000732422,-1.1738990545272827,0.09859699755907059
1771514224631374800,13.812374755859375,1.7292590141296387,-1.1333730220794678,-0.15683700144290924
1771514224651770400,13.832770263671875,0.9229440093040466,-0.7138350009918213,-0.4153279960155487
1771514224672160300,13.85316015625,0.14012199640274048,-0.25749000906944275,-0.16729499399662018
1771514224692549600,13.873549560546875,-1.0280859470367432,0.29877299070358276,-0.2761940062046051
1771514224712941800,13.89394189453125,-1.8669780492782593,0.8444859981536865,-0.6975709795951843
1771514224733335300,13.914335205078125,-1.6014490127563477,0.9128900170326233,-1.254364013671875
1771514224753727500,13.9347275390625,-0.6162880063056946,0.6171450018882751,-1.375728964805603
1771514224774119400,13.955119384765625,0.09555300325155258,0.22270700335502625,-0.9323830008506775
1771514224794512000,13.975511962890625,0.6498309969902039,-0.029078999534249306,-0.7756670117378235
1771514224814907600,13.99590771484375,1.325340986251831,0.0033420000690966845,-0.393312007188797
1771514224835306200,14.01630615234375,1.4211469888687134,0.05613600090146065,-0.029820000752806664
1771514224855703300,14.036703369140625,1.2835580110549927,0.1500300019979477,-0.012908999808132648
1771514224876096300,14.05709619140625,1.0214699506759644,0.27219098806381226,-0.08620200306177139
1771514224896486100,14.077486083984375,0.8444989919662476,0.382532000541687,0.1559479981660843
1771514224916876300,14.097876220703125,0.5043179988861084,0.10164699703454971,0.1036510020494461
1771514224937268200,14.118268310546876,0.8259450197219849,-0.28571200370788574,-0.25879400968551636
1771514224957660000,14.138659912109375,1.8968839645385742,-0.7155560255050659,-0.3737890124320984
1771514224978053000,14.15905322265625,2.386981964111328,-1.0308669805526733,-0.060350000858306885
1771514224998448400,14.179448486328125,2.150691032409668,-1.2009739875793457,0.23005500435829163
1771514225018841900,14.199841796875,0.9213060140609741,-0.8187100291252136,0.22671200335025787
1771514225039233500,14.220233642578124,-0.501043975353241,-0.3580459952354431,-0.1471329927444458
1771514225059623700,14.240623779296875,-1.3654290437698364,0.07701700180768967,-0.693261981010437
1771514225080013600,14.261013671875,-1.9271169900894165,0.5309159755706787,-0.9303709864616394
1771514225100403700,14.28140380859375,-2.0727341175079346,0.8232430219650269,-0.5069029927253723
1771514225120792300,14.301792236328126,-1.656872034072876,0.7776079773902893,-0.1321360021829605
1771514225141181000,14.322180908203125,-0.8051289916038513,0.36961498856544495,0.10335999727249146
1771514225161572000,14.342572021484376,0.13446199893951416,-0.023652000352740288,0.3098219931125641
1771514225181965000,14.362965087890625,0.3210909962654114,-0.38042598962783813,-0.27614301443099976
1771514225202359000,14.383359130859375,1.1585609912872314,-0.35713300108909607,-0.9051929712295532
1771514225222753800,14.40375390625,2.3351519107818604,-0.5702239871025085,-0.6873409748077393
1771514225243148800,14.424148681640625,2.664012908935547,-0.843163013458252,-0.18288099765777588
1771514225263543800,14.444543701171876,2.583885908126831,-0.8679640293121338,0.31384798884391785
1771514225283936000,14.46493603515625,1.832142949104309,-0.5183560252189636,0.29778701066970825
1771514225304327200,14.4853271484375,0.997484028339386,0.10378000140190125,-0.06704699993133545
1771514225324723000,14.505722900390625,0.36758801341056824,0.415367990732193,-0.3422519862651825
1771514225345122000,14.5261220703125,0.3677229881286621,0.4025079905986786,-0.5270580053329468
1771514225365519600,14.54651953125,0.5084270238876343,0.2416449934244156,-0.46823400259017944
1771514225385913900,14.566913818359374,0.46832698583602905,-0.0539029985666275,-0.5039880275726318
1771514225406304300,14.58730419921875,0.8937950134277344,-0.3095859885215759,-0.19268900156021118
1771514225426694700,14.607694580078125,1.1875139474868774,-0.4126009941101074,0.6285449862480164
1771514225447089400,14.62808935546875,1.0249279737472534,-0.35700899362564087,1.1556810140609741
1771514225467486200,14.648486328125,0.7817310094833374,-0.20409899950027466,0.9314470291137695
1771514225487883000,14.668883056640626,0.47010499238967896,0.208624005317688,0.45661500096321106
1771514225508278300,14.6892783203125,-0.15396100282669067,0.4114300012588501,0.13120700418949127
1771514225528668400,14.70966845703125,-0.6523669958114624,0.6427029967308044,-0.14228500425815582
1771514225549056800,14.730056884765625,-0.2456119954586029,0.696923017501831,-0.656095027923584
1771514225569446400,14.7504462890625,0.49523699283599854,0.49484699964523315,-0.9162819981575012
1771514225589839400,14.77083935546875,1.56809401512146,-0.07149700075387955,-1.333685040473938
1771514225610232600,14.791232666015626,2.546999931335449,-0.45738598704338074,-1.1438980102539062
1771514225630626600,14.81162646484375,2.6490700244903564,-0.310155987739563,-0.33037900924682617
1771514225651022800,14.83202294921875,1.5424920320510864,-0.05718500167131424,-0.01992500014603138
1771514225671415600,14.85241552734375,1.032052993774414,0.22652700543403625,-0.054356999695301056
1771514225691804000,14.872803955078124,0.9615690112113953,0.4212169945240021,-0.17428900301456451
1771514225712191000,14.89319091796875,0.7916470170021057,0.2784689962863922,-0.30446499586105347
1771514225732579000,14.9135791015625,0.45622700452804565,0.2608650028705597,-0.5008590221405029
1771514225752971500,14.933971435546875,-0.08680800348520279,0.40946000814437866,-0.34623798727989197
1771514225773365000,14.954364990234374,-0.4488210082054138,0.4731700122356415,-0.02219099923968315
1771514225793756400,14.97475634765625,0.03664100170135498,0.5199679732322693,0.13235700130462646
1771514225814146300,14.995146240234375,0.45404699444770813,0.43414801359176636,0.11006499826908112
1771514225834539000,15.0155390625,0.1043810024857521,0.19600899517536163,-0.12760700285434723
1771514225854933200,15.035933349609374,0.5334669947624207,-0.1646209955215454,-0.7512540221214294
1771514225875320800,15.05632080078125,1.1930179595947266,-0.1596670001745224,-0.341715008020401
1771514225895706400,15.076706298828125,1.0402380228042603,0.1730560064315796,0.31445300579071045
1771514225916094000,15.097093994140625,0.30070701241493225,0.3110229969024658,0.20987799763679504
1771514225936482800,15.11748291015625,0.40881600975990295,0.24260100722312927,-0.5935770273208618
1771514225956874200,15.137874267578125,1.3674490451812744,-0.168846994638443,-0.7798150181770325
1771514225977268500,15.1582685546875,2.148406982421875,-0.7835630178451538,-0.2768470048904419
1771514225997660000,15.178659912109374,2.540968894958496,-1.0476280450820923,0.22720399498939514
1771514226018049800,15.1990498046875,2.033492088317871,-0.7812070250511169,0.3517409861087799
1771514226038441000,15.21944091796875,0.9609950184822083,-0.34639498591423035,0.03360699862241745
1771514226058833700,15.239833740234374,0.2542029917240143,0.030189000070095062,-0.10139399766921997
1771514226079227100,15.26022705078125,0.23245899379253387,0.1380770057439804,-0.09509400278329849
1771514226099619800,15.280619873046875,0.48203200101852417,0.14329800009727478,-0.09428799897432327
1771514226120013800,15.301013916015625,0.2486959993839264,0.27873900532722473,-0.2683759927749634
1771514226140407000,15.321406982421875,-0.0612110011279583,0.4409950077533722,-0.5716059803962708
1771514226160800300,15.34180029296875,-0.11293499916791916,0.38901999592781067,-0.7130789756774902
1771514226181194800,15.36219482421875,0.4579800069332123,0.09862300008535385,-0.3816080093383789
1771514226201588500,15.38258837890625,1.196226954460144,-0.26582300662994385,0.08931200206279755
1771514226221980400,15.40298046875,1.3833489418029785,-0.40115800499916077,0.822422981262207
1771514226242373400,15.423373291015626,0.7860559821128845,-0.05449799820780754,1.2557129859924316
1771514226262767000,15.44376708984375,0.1987060010433197,0.35189899802207947,1.11489999294281
1771514226283159300,15.4641591796875,0.259786993265152,0.1682170033454895,0.6498720049858093
1771514226303549700,15.4845498046875,1.0694379806518555,-0.1381949931383133,0.36727699637413025
1771514226323940600,15.504940673828125,1.4644379615783691,-0.22540299594402313,0.23826000094413757
1771514226344335000,15.525335205078125,0.9870859980583191,-0.05722599849104881,-0.0504239983856678
1771514226364727600,15.5457275390625,0.2762640118598938,0.11138299852609634,-0.4374459981918335
1771514226385120300,15.566120361328124,0.7309209704399109,0.22134900093078613,-0.8194869756698608
1771514226405518000,15.58651806640625,1.5958260297775269,0.034258000552654266,-0.5637339949607849
1771514226425914000,15.6069140625,2.0476160049438477,-0.16121700406074524,-0.32919299602508545
1771514226446307600,15.6273076171875,1.7066680192947388,-0.20470599830150604,-0.3220579922199249
1771514226466705200,15.647705078125,1.1847460269927979,-0.16087600588798523,-0.569927990436554
1771514226487102500,15.6681025390625,1.440714955329895,-0.10526199638843536,-0.670989990234375
1771514226507495700,15.68849560546875,1.2044090032577515,-0.15544399619102478,-0.5765209794044495
1771514226527887400,15.708887451171876,0.7340700030326843,-0.1782039999961853,-0.7435240149497986
1771514226548278800,15.72927880859375,0.5434010028839111,-0.19989800453186035,-0.8416110277175903
1771514226568670700,15.749670654296875,-0.05581900104880333,0.11678700149059296,-0.6564469933509827
1771514226589064000,15.77006396484375,-0.4184519946575165,0.33997899293899536,-0.3183259963989258
1771514226609458200,15.790458251953124,-0.1311739981174469,0.3633109927177429,-0.2606709897518158
1771514226629851000,15.810850830078126,-0.08984600007534027,0.32457101345062256,-0.0015559999737888575
1771514226650241000,15.831240966796875,-0.13621599972248077,0.10127100348472595,0.41426700353622437
1771514226670632400,15.851632568359374,-0.02674899995326996,-0.03536299988627434,0.6445050239562988
1771514226691027200,15.872027099609374,0.6791620254516602,-0.22860300540924072,0.747842013835907
1771514226711417900,15.89241796875,1.654039978981018,-0.238755002617836,0.5183579921722412
1771514226731804700,15.9128046875,1.8377180099487305,-0.17155300080776215,0.4729509949684143
1771514226752193500,15.933193603515624,1.051550030708313,0.2995400130748749,0.6422880291938782
1771514226772587500,15.95358740234375,0.5468999743461609,0.7548030018806458,0.265500009059906
1771514226792983800,15.97398388671875,0.561896026134491,1.1641249656677246,-0.1752229928970337
1771514226813377000,15.994376953125,0.9946460127830505,1.3291759490966797,-0.2638989984989166
1771514226833769700,16.014769775390626,0.7335910201072693,1.3909209966659546,0.006318000145256519
1771514226854162700,16.03516259765625,0.21839599311351776,1.5782560110092163,0.2291949987411499
1771514226874553300,16.05555322265625,-0.029174000024795532,1.7012039422988892,0.197393998503685
1771514226894942500,16.0759423828125,0.17590799927711487,1.7442220449447632,0.4742650091648102
1771514226915333400,16.09633349609375,0.8011630177497864,1.3341219425201416,0.5882869958877563
1771514226935725300,16.116725341796876,1.4063869714736938,0.9001790285110474,0.34450098872184753
1771514226956115200,16.137115234375,1.502776026725769,0.4880110025405884,0.2561489939689636
1771514226976504300,16.15750439453125,1.1844899654388428,0.19123899936676025,0.5857380032539368
1771514226996897800,16.177897705078124,1.1694129705429077,0.00791999977082014,0.4326170086860657
1771514227017291800,16.198291748046874,1.4570209980010986,-0.19680599868297577,0.08420000225305557
1771514227037682200,16.21868212890625,1.7346019744873047,-0.8784340023994446,-0.13242599368095398
1771514227058071800,16.23907177734375,2.163377046585083,-1.4405560493469238,0.11561299860477448
1771514227078462200,16.259462158203124,2.031970977783203,-1.7844040393829346,0.47356200218200684
1771514227098852900,16.279852783203125,1.0075420141220093,-1.7446049451828003,0.6029239892959595
1771514227119242500,16.300242431640626,0.3107289969921112,-1.6679470539093018,0.10205300152301788
1771514227139633000,16.3206328125,0.37932801246643066,-1.6134799718856812,-0.06697499752044678
1771514227160024000,16.341024169921877,0.6312770247459412,-1.6348400115966797,-0.21248899400234222
1771514227180414700,16.361414794921874,0.37108299136161804,-1.3566069602966309,-0.37264901399612427
1771514227200802600,16.381802490234374,-0.4997139871120453,-0.7797350287437439,-0.7213799953460693
1771514227221188600,16.402188720703126,-1.028365969657898,0.053964000195264816,-1.2549599409103394
1771514227241576700,16.42257666015625,-0.6959649920463562,0.8076689839363098,-2.458220958709717
1771514227261966600,16.442966552734376,0.19547000527381897,1.1147600412368774,-3.2260730266571045
1771514227282359800,16.46335986328125,0.9472990036010742,0.757049024105072,-2.7171549797058105
1771514227302756900,16.4837568359375,1.3449610471725464,0.3958570063114166,-1.7815320491790771
1771514227323154700,16.50415478515625,1.3629399538040161,0.3216789960861206,-1.134518027305603
1771514227343550500,16.524550537109373,1.0142199993133545,0.38026198744773865,-0.6377440094947815
1771514227363943000,16.54494287109375,0.2858259975910187,0.8014270067214966,-0.25171300768852234
1771514227384335600,16.565335693359376,-0.7863330245018005,1.445044994354248,-0.10524500161409378
1771514227404730400,16.58573046875,-1.1619130373001099,1.9919630289077759,-0.16251300275325775
1771514227425127200,16.606127197265625,-0.6267269849777222,2.195544958114624,-0.38545501232147217
1771514227445524200,16.626524169921876,-0.12354300171136856,2.1614229679107666,-0.3760800063610077
1771514227465915600,16.64691552734375,-0.05963600054383278,1.7191499471664429,-0.42400500178337097
1771514227486310100,16.66731005859375,0.9478229880332947,1.1267670392990112,-0.040918998420238495
1771514227506709200,16.687709228515626,1.971722960472107,0.5645589828491211,0.915099024772644
1771514227527111200,16.708111083984374,2.5058889389038086,0.581741988658905,1.4500679969787598
1771514227547513600,16.728513671875,2.6273128986358643,0.4767490029335022,1.2656320333480835
1771514227567914200,16.748914306640625,1.28200101852417,0.5893419981002808,1.5543290376663208
1771514227588317200,16.769317138671877,0.38635799288749695,0.6918259859085083,1.6952519416809082
1771514227608720100,16.78972021484375,0.9364870190620422,0.30495598912239075,1.678123950958252
1771514227629122000,16.8101220703125,1.77080500125885,-0.18221600353717804,1.585623025894165
1771514227649523000,16.83052294921875,1.3137880563735962,-0.37891900539398193,1.278978943824768
1771514227669919700,16.850919677734375,0.7145990133285522,-0.40777599811553955,0.6381239891052246
1771514227690315300,16.871315185546877,0.6450780034065247,-0.4108409881591797,-0.07847599685192108
1771514227710711300,16.891711181640623,0.9290419816970825,-0.35378000140190125,-0.39925500750541687
1771514227731106000,16.91210595703125,0.9374099969863892,-0.13167299330234528,-0.2698110044002533
1771514227751499800,16.932499755859375,0.6605100035667419,-0.06231300160288811,-0.45799198746681213
1771514227771891200,16.95289111328125,0.9879819750785828,-0.3263320028781891,-1.037564992904663
1771514227792280600,16.973280517578125,1.862207055091858,-0.4578720033168793,-1.4910160303115845
1771514227812671000,16.9936708984375,1.8774800300598145,-0.4771049916744232,-0.9580450057983398
1771514227833062100,17.014062255859375,0.7182739973068237,-0.3166239857673645,-0.4930480122566223
1771514227853453800,17.034453857421877,-0.3767629861831665,0.11965200304985046,-0.33470800518989563
1771514227873847000,17.054846923828126,-1.1679149866104126,0.8148319721221924,-0.7224670052528381
1771514227894241800,17.07524169921875,-1.6542960405349731,1.4009690284729004,-0.849839985370636
1771514227914639400,17.095639404296875,-1.841729998588562,1.57715904712677,-0.7335090041160583
1771514227935038000,17.116037841796874,-1.3223259449005127,1.2501269578933716,-0.6754840016365051
1771514227955433000,17.136432861328124,-0.24715900421142578,0.5936440229415894,-0.7614309787750244
1771514227975830800,17.156830810546875,0.94651198387146,-0.053957998752593994,-0.6568840146064758
1771514227996227800,17.177227783203126,1.8492039442062378,-0.22425200045108795,-0.2668739855289459
1771514228016620500,17.19762060546875,1.635998010635376,-0.08849400281906128,0.19571100175380707
1771514228037014300,17.21801416015625,0.9601340293884277,0.10844500362873077,-0.18364499509334564
1771514228057406200,17.23840625,0.8762480020523071,0.5573480129241943,-0.4410409927368164
1771514228077795800,17.2587958984375,1.04340398311615,0.29877999424934387,-0.5861780047416687
1771514228098185700,17.279185791015625,1.7943650484085083,-0.4653890132904053,-0.1643809974193573
1771514228118579200,17.2995791015625,2.418581962585449,-0.8022509813308716,0.4286159873008728
1771514228138975200,17.319975341796876,1.4257930517196655,-0.7236430048942566,0.9380959868431091
1771514228159369000,17.340368896484375,-0.04398500174283981,-0.42506900429725647,1.0366090536117554
1771514228179761400,17.360761474609376,-0.4889160096645355,-0.12406600266695023,0.7442439794540405
1771514228200156000,17.381156005859374,-0.2410690039396286,0.006947999820113182,0.5685240030288696
1771514228220551000,17.401551025390624,-0.30401599407196045,0.0436679981648922,0.595704972743988
1771514228240947500,17.421947509765626,-0.2236810028553009,-0.06916200369596481,0.8730379939079285
1771514228261346300,17.44234619140625,-0.2629300057888031,0.42972299456596375,1.3616260290145874
1771514228281739800,17.46273974609375,-1.3462200164794922,1.0608559846878052,1.4727009534835815
1771514228302132000,17.483132080078125,-0.29705700278282166,0.12864600121974945,-0.04958000034093857
1771514228322530300,17.5035302734375,3.893557071685791,-1.2140949964523315,-0.8675670027732849
1771514228342930700,17.5239306640625,6.080111980438232,-1.710060954093933,-0.12610700726509094
1771514228363328300,17.544328369140626,2.3650898933410645,-0.8722370266914368,1.2656580209732056
1771514228383722000,17.564721923828124,-3.0283141136169434,1.6166850328445435,2.0050339698791504
1771514228404118000,17.585117919921874,-5.114811897277832,3.733445882797241,1.2699860334396362
1771514228424517000,17.60551708984375,-3.628387928009033,2.647891044616699,-1.0469199419021606
1771514228444912400,17.625912353515623,-0.10052499920129776,0.5621280074119568,-3.289872884750366
1771514228465306400,17.646306396484373,4.955290794372559,-2.186939001083374,-2.0621609687805176
1771514228485702400,17.666702392578124,6.55025577545166,-2.620131015777588,1.7086750268936157
1771514228506099200,17.68709912109375,3.09049391746521,-1.9515479803085327,2.9077439308166504
1771514228526493700,17.70749365234375,0.33360201120376587,-0.7757909893989563,1.5512290000915527
1771514228546886400,17.727886474609374,0.1661289930343628,-0.18485499918460846,-0.04847799986600876
1771514228567281000,17.748281005859376,0.26717498898506165,-0.3406040072441101,-0.4940899908542633
1771514228587677700,17.768677734375,0.1600160002708435,-1.032080054283142,-0.5650089979171753
1771514228608077600,17.78907763671875,0.2770420014858246,-1.3259979486465454,-0.32357901334762573
1771514228628474400,17.809474365234376,-0.7596319913864136,-1.1760040521621704,-0.2026900053024292
1771514228648863000,17.829863037109376,-1.540563941001892,-0.9692720174789429,-0.632673978805542
1771514228669250600,17.85025048828125,-0.5362020134925842,-1.0648729801177979,-1.2053619623184204
1771514228689643500,17.8706435546875,1.157533049583435,-1.4508939981460571,-1.2307219505310059
1771514228710038800,17.891038818359377,1.5958809852600098,-1.4197419881820679,-0.4651710093021393
1771514228730432000,17.911431884765626,-0.01584699936211109,0.9185799956321716,1.8280019760131836
1771514228750825200,17.9318251953125,-1.8460789918899536,3.054650068283081,2.1358249187469482
1771514228771221200,17.95222119140625,-1.9964580535888672,4.328763008117676,1.3578180074691772
1771514228791620400,17.972620361328126,-0.8216050267219543,3.449702024459839,-0.563552975654602
1771514228812019200,17.993019287109377,1.7750999927520752,1.0844060182571411,-3.3037269115448
1771514228832415500,18.01341552734375,5.661228179931641,-1.487831950187683,-2.8104429244995117
1771514228852810000,18.03381005859375,6.230594158172607,-2.4206230640411377,0.7090749740600586
1771514228873202000,18.054201904296875,1.97981595993042,-1.4484130144119263,2.082751989364624
1771514228893591300,18.07459130859375,-2.4312710762023926,0.3183459937572479,0.7353249788284302
1771514228913980400,18.09498046875,-1.0826250314712524,0.6648280024528503,-1.292909026145935
1771514228934372600,18.11537255859375,3.6397171020507812,-0.3928639888763428,-1.4114660024642944
1771514228954768100,18.13576806640625,3.661623001098633,-0.8489760160446167,-0.04557599872350693
1771514228975162600,18.15616259765625,0.6765239834785461,-1.1638699769973755,0.07706400007009506
1771514228995554000,18.176553955078123,0.33055201172828674,-1.325924038887024,-1.3202539682388306
1771514229015944700,18.19694482421875,1.0320700407028198,-1.5277129411697388,-2.33246111869812
1771514229036334800,18.2173349609375,-0.23179300129413605,-1.4029979705810547,-1.459954023361206
1771514229056723700,18.2377236328125,-2.4854700565338135,-0.9409160017967224,-0.2944839894771576
1771514229077111000,18.258111083984375,-3.150623083114624,0.2525100111961365,0.4374290108680725
1771514229097495300,18.278495361328126,-1.957360029220581,2.386399030685425,1.0666929483413696
1771514229117875500,18.29887548828125,-1.351019024848938,3.5664238929748535,0.46577998995780945
1771514229138256600,18.319256591796876,-0.8924689888954163,2.74373197555542,-1.545609951019287
1771514229158639000,18.33963916015625,0.38735100626945496,1.7060860395431519,-1.9062230587005615
1771514229179018500,18.3600185546875,2.690448045730591,0.6817650198936462,-1.0656379461288452
1771514229199400400,18.380400390625,3.9946579933166504,-0.01584799960255623,0.6039549708366394
1771514229219785200,18.40078515625,2.8775010108947754,0.2644079923629761,1.199884057044983
1771514229240167000,18.4211669921875,1.8698370456695557,1.2817660570144653,0.7128810286521912
1771514229260547600,18.441547607421874,-0.10240399837493896,1.980262041091919,-0.16357600688934326
1771514229280930600,18.4619306640625,-0.5543529987335205,1.7007670402526855,-0.7856159806251526
1771514229301316000,18.482316162109374,0.3347089886665344,0.6386619806289673,-0.5479850172996521
1771514229321703000,18.502702880859374,0.9543889760971069,-0.28585299849510193,0.26489201188087463
1771514229342092000,18.523092041015627,0.4371980130672455,-0.7018309831619263,1.503851056098938
1771514229362480000,18.543480224609375,-1.2262639999389648,-0.32596299052238464,2.13557505607605
1771514229382870800,18.563870849609376,-1.8595199584960938,0.3232859969139099,2.0204880237579346
1771514229403263200,18.58426318359375,-0.9397079944610596,0.9183729887008667,2.008384943008423
1771514229423655200,18.6046552734375,0.09543400257825851,0.5817440152168274,1.6212940216064453
1771514229444045000,18.625045166015624,-0.004865999799221754,0.18718400597572327,1.0103620290756226
1771514229464435500,18.645435546875,0.18064600229263306,-0.1956389993429184,-0.07507199794054031
1771514229484830500,18.66583056640625,1.1779279708862305,-0.3413600027561188,-1.0729659795761108
1771514229505229300,18.686229248046875,2.5547780990600586,-0.3062080144882202,-0.6722639799118042
1771514229525627600,18.706627685546874,2.0794849395751953,-0.35614800453186035,0.6284310221672058
1771514229546021000,18.727021240234375,1.0595380067825317,0.2674509882926941,1.3076790571212769
1771514229566413800,18.747413818359377,0.484591007232666,0.7927700281143188,0.5394240021705627
1771514229586809300,18.767809326171875,0.25861799716949463,0.7588080167770386,-0.8352599740028381
1771514229607204400,18.788204345703125,1.4170780181884766,0.1224529966711998,-1.1469810009002686
1771514229627596000,18.808595947265626,2.512829065322876,-0.883437991142273,-0.31702300906181335
1771514229647986000,18.82898583984375,1.8843289613723755,-1.0804860591888428,0.7618370056152344
1771514229668375300,18.849375244140624,-0.39967700839042664,-0.6515079736709595,1.0971109867095947
1771514229688766200,18.86976611328125,-1.7361429929733276,0.1772339940071106,0.9203749895095825
1771514229709159400,18.890159423828123,-1.9347740411758423,0.8902419805526733,0.8168879747390747
1771514229729553200,18.91055322265625,-1.4001179933547974,1.3345600366592407,1.4028520584106445
1771514229749943800,18.93094384765625,-1.633937954902649,1.2250250577926636,1.4018410444259644
1771514229770336000,18.9513359375,-0.5078949928283691,-0.09246399998664856,-0.2329690009355545
1771514229790731500,18.9717314453125,2.0302460193634033,-0.7758830189704895,-1.5427440404891968
1771514229811127000,18.992126953125,4.517487049102783,-1.2007169723510742,-1.231626033782959
1771514229831524000,19.012524169921875,3.0454769134521484,-0.9224100112915039,0.2199140042066574
1771514229851923500,19.03292333984375,-0.044426001608371735,-0.2671090066432953,0.8701090216636658
1771514229872322000,19.053322021484377,-1.4436579942703247,0.57218998670578,0.47303301095962524
1771514229892719000,19.073718994140624,-1.0025420188903809,1.1068739891052246,-0.33368200063705444
1771514229913114000,19.094114013671874,0.2890140116214752,0.7985339760780334,-1.5183459520339966
1771514229933507000,19.114507080078123,1.596055030822754,-0.22272099554538727,-1.7254559993743896
1771514229953901300,19.1349013671875,2.544039011001587,-1.2457129955291748,-0.9583309888839722
1771514229974298600,19.155298583984376,2.705595016479492,-1.4013370275497437,0.4991320073604584
1771514229994697500,19.175697509765627,1.029062032699585,-0.9933680295944214,0.9669110178947449
1771514230015098400,19.196098388671874,-0.36443600058555603,-0.2804490029811859,0.48009398579597473
1771514230035500300,19.216500244140626,-0.6910930275917053,0.47306299209594727,-0.2596839964389801
1771514230055901000,19.23690087890625,-0.5273950099945068,0.745764970779419,-0.7825530171394348
1771514230076298200,19.25729833984375,-0.5247780084609985,0.6280310153961182,-0.616362988948822
1771514230096695600,19.277695556640627,-0.10408999770879745,0.12266600131988525,-0.42875799536705017
1771514230117090000,19.298090087890625,0.862293004989624,-0.19026699662208557,-0.5241219997406006
1771514230137482200,19.318482177734374,1.8096200227737427,-0.3659049868583679,-0.9210500121116638
1771514230157877500,19.33887744140625,2.417249917984009,-0.37366798520088196,-0.9730479717254639
1771514230178275600,19.359275634765623,2.3891448974609375,-0.4786979854106903,-0.7546799778938293
1771514230198673400,19.37967333984375,1.086326003074646,-0.27094000577926636,-0.234156996011734
1771514230219067000,19.40006689453125,-0.24691900610923767,0.05300600081682205,-0.04230400174856186
1771514230239456500,19.42045654296875,-1.0218110084533691,0.6596130132675171,0.16229799389839172
1771514230259845000,19.44084521484375,-1.3529499769210815,1.2021050453186035,-0.007402000017464161
1771514230280234500,19.461234375,-1.2981810569763184,1.639827013015747,0.0025939999613910913
1771514230300626400,19.48162646484375,-1.0115180015563965,1.6667170524597168,0.10289700329303741
1771514230321020200,19.502020263671874,-0.4460830092430115,1.2261430025100708,-0.05262099951505661
1771514230341414400,19.522414306640623,0.5533589720726013,0.5189110040664673,-0.10074800252914429
1771514230361807600,19.5428076171875,1.2495989799499512,-0.015541999600827694,0.14993299543857574
1771514230382203100,19.563203125,1.5647430419921875,-0.34054499864578247,0.4189620018005371
1771514230402600200,19.58360009765625,1.6916650533676147,-0.5436099767684937,0.31329700350761414
1771514230422994400,19.603994384765624,1.7642220258712769,-0.558230996131897,0.38373899459838867
1771514230443385300,19.62438525390625,1.1944400072097778,-0.5149120092391968,0.5443999767303467
1771514230463774000,19.64477392578125,0.2410449981689453,-0.3068870007991791,0.5423759818077087
1771514230484161000,19.6651611328125,-0.03207100182771683,-0.23563599586486816,0.0804160013794899
1771514230504549600,19.685549560546875,0.1340170055627823,-0.29131200909614563,-0.10039400309324265
1771514230524942600,19.705942626953124,0.30099499225616455,-0.42056700587272644,-0.1799059957265854
1771514230545340200,19.726340087890627,0.8199489712715149,-0.6766340136528015,-0.11992599815130234
1771514230565735200,19.746735107421873,0.9946680068969727,-0.7637180089950562,0.2097489982843399
1771514230586122800,19.767122802734374,0.7269499897956848,-0.7381590008735657,0.241115003824234
1771514230606509600,19.787509521484374,0.6035550236701965,-0.35756799578666687,-0.02407200075685978
1771514230626899000,19.80789892578125,0.408841997385025,0.12988199293613434,-0.23833000659942627
1771514230647289900,19.828289794921876,-0.12507100403308868,0.6770579814910889,0.16332599520683289
1771514230667680500,19.848680419921877,-0.4820370078086853,0.9729570150375366,0.25547298789024353
1771514230688069000,19.869069091796874,-0.3929469883441925,1.2753900289535522,0.21892400085926056
1771514230708455400,19.889455322265626,-0.11999700218439102,1.3639299869537354,-0.3206619918346405
1771514230728842500,19.909842529296874,0.23580999672412872,1.569229006767273,-0.7422900199890137
1771514230749232400,19.930232421875,0.8735309839248657,1.4743200540542603,-1.1997679471969604
1771514230769624600,19.95062451171875,1.8647849559783936,0.8834649920463562,-1.1448290348052979
1771514230790020900,19.971020751953127,2.325464963912964,0.2937830090522766,-0.839277982711792
1771514230810419500,19.99141943359375,2.171710968017578,-0.29863500595092773,-0.37501001358032227
1771514230830815200,20.011815185546876,1.5750720500946045,-0.39969000220298767,-0.32046499848365784
1771514230851213300,20.03221337890625,0.9293149709701538,-0.2847990095615387,-0.41076400876045227
1771514230871613000,20.052613037109374,0.5712080001831055,-0.27180999517440796,-0.481207013130188
1771514230892010500,20.073010498046877,0.45475199818611145,-0.3921630084514618,-0.42869600653648376
1771514230912406300,20.09340625,-0.10015799850225449,-0.6678839921951294,-0.10892199724912643
1771514230932802600,20.113802490234374,-0.5404409766197205,-0.6107829809188843,-0.016506999731063843
1771514230953197300,20.134197265625,-0.6564090251922607,-0.5141710042953491,-0.4152269959449768
1771514230973588000,20.154587890625,-0.35038599371910095,-0.22325000166893005,-0.5637620091438293
1771514230993979000,20.174978759765626,0.15477199852466583,-0.19644799828529358,-0.7846289873123169
1771514231014374100,20.1953740234375,0.36175400018692017,-0.15766200423240662,-0.6497650146484375
1771514231034772500,20.2157724609375,0.12511999905109406,-0.21879300475120544,-0.33232399821281433
1771514231055170000,20.236170166015626,0.44478899240493774,-0.29155799746513367,-0.28243300318717957
1771514231075569000,20.25656884765625,1.3346450328826904,-0.33113300800323486,-0.48259299993515015
1771514231095964200,20.276964111328127,1.3469040393829346,-0.2891460061073303,-0.49754598736763
1771514231116358100,20.297358154296877,1.1869449615478516,-0.24663600325584412,-0.2705160081386566
1771514231136756000,20.317755859375,0.7689610123634338,-0.20103999972343445,-0.28825798630714417
1771514231157154300,20.338154296875,0.380046010017395,0.09397099912166595,-0.17247700691223145
1771514231177549300,20.35854931640625,-0.07226800173521042,0.328590989112854,-0.09404700249433517
1771514231197940700,20.378940673828126,-0.019043000414967537,0.42061498761177063,-0.01115499995648861
1771514231218334200,20.399334228515624,0.6684160232543945,0.15807799994945526,0.024901999160647392
1771514231238731300,20.419731201171874,1.126505970954895,-0.11419499665498734,0.3485429883003235
1771514231259127000,20.440126953125,0.8320329785346985,-0.2039870023727417,0.6299129724502563
1771514231279520500,20.4605205078125,0.16785000264644623,0.04165000095963478,0.6714140176773071
1771514231299912400,20.480912353515624,0.5228949785232544,0.2434680014848709,0.3180769979953766
1771514231320306400,20.501306396484374,0.6844540238380432,0.5014079809188843,0.22289499640464783
1771514231340703000,20.521702880859376,0.5269629955291748,0.6209329962730408,0.02739899978041649
1771514231361098000,20.542097900390626,0.4519929885864258,0.6070089936256409,-0.08103799819946289
1771514231381491700,20.56249169921875,0.7416819930076599,0.7842540144920349,-0.26149699091911316
1771514231401885000,20.582885009765626,0.5875980257987976,0.9275969862937927,-0.3894140124320984
1771514231422279700,20.60327978515625,0.32854199409484863,0.9243929982185364,-0.39119601249694824
1771514231442676000,20.623676025390626,0.52913498878479,0.919713020324707,-0.09303600341081619
1771514231463070500,20.644070556640624,1.0550899505615234,0.6541119813919067,-0.38984599709510803
1771514231483464200,20.664464111328126,2.0160179138183594,0.35598498582839966,-0.7390239834785461
1771514231503858700,20.684858642578124,2.6498210430145264,-0.1288370043039322,-0.734503984451294
1771514231524253700,20.705253662109374,1.943910002708435,-0.1626719981431961,-0.009321999736130238
1771514231544649700,20.725649658203125,0.20275099575519562,-0.0508590005338192,0.09519200026988983
1771514231565045000,20.746044921875,0.09257099777460098,-0.06494899839162827,-0.12059900164604187
1771514231585439200,20.766439208984377,1.5519330501556396,-0.3727610111236572,-0.1512569934129715
1771514231605838300,20.78683837890625,2.2473089694976807,-0.7658650279045105,0.33637499809265137
1771514231626240500,20.807240478515624,1.0039900541305542,-0.6681650280952454,0.4010080099105835
1771514231646637800,20.827637939453126,0.018552999943494797,-0.1673389971256256,0.03683599829673767
1771514231667034400,20.848034423828125,-0.38415899872779846,0.2841640114784241,-0.43519100546836853
1771514231687430700,20.8684306640625,0.421983003616333,0.19201399385929108,-0.2946690022945404
1771514231707828500,20.888828369140626,0.7972300052642822,0.026465000584721565,0.31217899918556213
1771514231728228400,20.909228271484373,0.3086560070514679,0.1803790032863617,0.9884819984436035
1771514231748630300,20.92963037109375,-0.38599398732185364,0.6884729862213135,0.7802690267562866
1771514231769031000,20.950031005859376,0.011517000384628773,0.67774897813797,-0.22241300344467163
1771514231789425400,20.97042529296875,1.3327349424362183,0.5350679755210876,-1.2114089727401733
1771514231809819600,20.990819580078124,2.758194923400879,0.10389000177383423,-0.6169130206108093
1771514231830214100,21.011214111328126,2.509921073913574,-0.21581800282001495,0.3439899981021881
1771514231850612500,21.031612548828125,1.5408259630203247,0.017784999683499336,0.21177299320697784
1771514231871011000,21.052010986328124,1.063099980354309,0.2034910023212433,-0.8630020022392273
1771514231891407400,21.072407470703126,1.241853952407837,0.5103430151939392,-1.0727250576019287
1771514231911805200,21.09280517578125,0.7468230128288269,0.5992749929428101,-0.7624660134315491
1771514231932206000,21.1132060546875,-0.45085999369621277,0.7916319966316223,-0.06074900180101395
1771514231952610300,21.1336103515625,-0.8962240219116211,0.6903660297393799,-0.16839799284934998
1771514231973012200,21.15401220703125,-0.0910940021276474,0.678816020488739,-0.5268229842185974
1771514231993406200,21.17440625,0.4096899926662445,0.5310459733009338,-0.9215800166130066
1771514232013800200,21.19480029296875,0.6968969702720642,0.4026530086994171,-0.9129459857940674
1771514232034200300,21.215200439453124,1.1576379537582397,0.2646520137786865,-0.8883190155029297
1771514232054602500,21.2356025390625,1.7069849967956543,-0.048225998878479004,-0.6355159878730774
1771514232075001900,21.256001953125,2.1119470596313477,-0.23450399935245514,-0.42292898893356323
1771514232095398100,21.276398193359373,0.9610030055046082,0.15514400601387024,-0.12933599948883057
1771514232115792000,21.2967919921875,-0.1288370043039322,0.5050960183143616,-0.380171000957489
1771514232136187000,21.317186767578125,-0.06340699642896652,0.7287219762802124,-0.3959600031375885
1771514232156587500,21.33758740234375,0.3500800132751465,0.8333950042724609,-0.1256140023469925
1771514232176987400,21.3579873046875,0.1368580013513565,0.5199689865112305,-0.20914499461650848
1771514232197380900,21.378380859375,0.5834479928016663,0.07334399968385696,-0.2784320116043091
1771514232217772000,21.39877197265625,0.6400799751281738,0.10399399697780609,0.3720479905605316
1771514232238166300,21.419166259765625,-0.2473759949207306,0.19126899540424347,0.6737139821052551
1771514232258562300,21.439562255859375,-0.4318940043449402,0.19618700444698334,0.17215299606323242
1771514232278955500,21.45995556640625,0.5837039947509766,0.2131039947271347,-0.31398698687553406
1771514232299348500,21.480348388671874,0.7836350202560425,-0.11831600219011307,0.3759849965572357
1771514232319739600,21.50073974609375,0.8945940136909485,-0.2627350091934204,0.8805639743804932
1771514232340130600,21.521130615234377,0.6150630116462708,0.19273699820041656,0.8657060265541077
1771514232360523500,21.5415234375,-0.6169430017471313,0.490213006734848,0.12065000087022781
1771514232380918300,21.561918212890625,-0.4736109972000122,0.44926199316978455,-0.5017750263214111
1771514232401313000,21.58231298828125,0.6589639782905579,0.19962799549102783,-0.45760300755500793
1771514232421706200,21.602706298828124,0.7102320194244385,-0.2233860045671463,0.36099401116371155
1771514232442102800,21.623102783203127,-0.16638299822807312,-0.24068200588226318,0.8751729726791382
1771514232462503200,21.643503173828126,-0.33976998925209045,-0.3596549928188324,0.5375549793243408
1771514232482904600,21.663904541015626,0.6490210294723511,-0.488662987947464,0.18109600245952606
1771514232503302100,21.68430224609375,1.511275053024292,-0.657459020614624,0.14221400022506714
1771514232523695000,21.704695068359374,1.2154929637908936,-0.3374370038509369,0.46986499428749084
1771514232544087000,21.725087158203124,-0.1503479927778244,0.427280992269516,0.6500679850578308
1771514232564482300,21.745482421875,-1.1430599689483643,1.189236044883728,0.3133719861507416
1771514232584881200,21.765881103515625,-1.358111023902893,1.7187219858169556,-0.02193400077521801
1771514232605278500,21.786278564453124,-0.5269179940223694,0.8540689945220947,-0.8745369911193848
1771514232625676300,21.80667626953125,1.8478089570999146,-0.15252700448036194,-0.5444880127906799
1771514232646074000,21.82707421875,2.988189935684204,-0.8793309926986694,0.14942100644111633
1771514232666472400,21.847472412109376,3.19313907623291,-1.282547950744629,0.4728719890117645
1771514232686873300,21.867873291015623,3.1258161067962646,-1.1644389629364014,0.009775999933481216
1771514232707275000,21.88827490234375,2.136244058609009,-1.017212986946106,-0.06794100254774094
1771514232727678500,21.908678466796875,0.9313740134239197,-0.7445160150527954,0.4885829985141754
1771514232748079400,21.929079345703126,-0.6656849980354309,0.047766998410224915,0.8578979969024658
1771514232768478700,21.949478759765626,-2.5126030445098877,1.0192910432815552,0.8238630294799805
1771514232788877600,21.969877685546876,-2.6568329334259033,1.7082270383834839,0.22184500098228455
1771514232809275600,21.990275634765624,-1.490900993347168,1.7077159881591797,-0.257191002368927
1771514232829675300,22.01067529296875,0.039048001170158386,0.7900949716567993,-1.1239279508590698
1771514232850073300,22.0310732421875,1.2517679929733276,-0.3532789945602417,-1.0773860216140747
1771514232870475800,22.051475830078125,1.6530790328979492,-0.8068900108337402,-0.3681949973106384
1771514232890880300,22.07188037109375,3.1913390159606934,-1.4350340366363525,-0.0646279975771904
1771514232911281200,22.09228125,4.207359790802002,-1.5036699771881104,0.36928001046180725
1771514232931683000,22.11268310546875,2.0393359661102295,-0.9475280046463013,0.9272930026054382
1771514232952085000,22.1330849609375,-0.379366010427475,-0.26618701219558716,0.9857079982757568
1771514232972483600,22.153483642578124,-2.085905075073242,0.49101001024246216,0.8851789832115173
1771514232992879600,22.173879638671874,-2.4574239253997803,0.9078310132026672,0.9763669967651367
1771514233013278500,22.194278564453125,-2.078969955444336,0.5919870138168335,0.20045100152492523
1771514233033679400,22.214679443359376,-0.42019400000572205,0.2069689929485321,-0.5559110045433044
1771514233054079000,22.235078857421875,1.2318739891052246,-0.42072799801826477,-0.6781269907951355
1771514233074476500,22.2554765625,2.1107800006866455,-0.9913870096206665,-0.2841759920120239
1771514233094872600,22.27587255859375,2.030137062072754,-0.6665310263633728,0.2590610086917877
1771514233115268600,22.2962685546875,1.9634939432144165,-0.31377100944519043,0.10018300265073776
1771514233135664400,22.316664306640625,1.5395619869232178,-0.1281130015850067,0.011605000123381615
1771514233156058600,22.33705859375,1.6599910259246826,-0.33147498965263367,0.11776900291442871
1771514233176452000,22.3574521484375,1.0053850412368774,0.016030000522732735,0.3428179919719696
1771514233196845300,22.37784521484375,-0.2835110127925873,0.6050289869308472,0.27936500310897827
1771514233217238000,22.398238037109376,-1.5241589546203613,1.1772409677505493,-0.02852099947631359
1771514233237632800,22.4186328125,-1.2374670505523682,1.2844010591506958,-0.7872030138969421
1771514233258027500,22.439027587890624,0.06548900157213211,0.6711879968643188,-0.9517670273780823
1771514233278423300,22.45942333984375,2.075252056121826,-0.06718999892473221,-1.46540105342865
1771514233298820400,22.4798203125,2.5881540775299072,-0.2626529932022095,-1.4105989933013916
1771514233319217400,22.500217529296876,0.9611049890518188,-0.05878100171685219,-0.4386340081691742
1771514233339615500,22.520615478515627,0.4203610122203827,0.20354300737380981,-0.04075700044631958
1771514233360012300,22.54101220703125,1.1024940013885498,0.5492150187492371,-0.16103599965572357
1771514233380405800,22.56140576171875,0.8995720148086548,0.17480400204658508,-0.3388659954071045
1771514233400801000,22.581801025390625,0.8005239963531494,0.0858369991183281,0.07263600081205368
1771514233421199000,22.60219921875,-0.2082650065422058,0.42229700088500977,0.36649200320243835
1771514233441595600,22.622595703125,-1.10686194896698,0.45278599858283997,-0.06969399750232697
1771514233461990400,22.642990478515625,-0.9521219730377197,0.38174399733543396,-0.39751699566841125
1771514233482385200,22.66338525390625,0.16286799311637878,-0.13768300414085388,-0.4503310024738312
1771514233502778600,22.683778564453124,1.1599760055541992,-0.8830530047416687,-0.4604969918727875
1771514233523171600,22.704171630859374,2.2272579669952393,-1.2440099716186523,-0.07280699908733368
1771514233543565300,22.7245654296875,1.1002830266952515,-0.6153600215911865,0.6051830053329468
1771514233563958300,22.744958251953125,-0.8032190203666687,0.7024009823799133,0.9595500230789185
1771514233584350000,22.765349853515627,-1.4548840522766113,2.650944948196411,1.1111429929733276
1771514233604740600,22.78574072265625,-0.6760849952697754,2.8499200344085693,0.33782199025154114
1771514233625132300,22.80613232421875,0.0649000033736229,1.3261510133743286,-1.8233540058135986
1771514233645525800,22.82652587890625,1.481598973274231,0.6535519957542419,-1.5471060276031494
1771514233665919000,22.8469189453125,2.8493590354919434,-0.9691810011863708,-0.2274940013885498
1771514233686311000,22.867310791015626,3.330591917037964,-2.645235061645508,0.789687991142273
1771514233706700300,22.8877001953125,3.55985689163208,-3.09329891204834,1.0608999729156494
1771514233727091000,22.908091064453124,1.7334469556808472,-2.8157570362091064,0.9817439913749695
1771514233747483100,22.928483154296874,-0.7566940188407898,-2.622396945953369,0.6952919960021973
1771514233767873300,22.948873291015627,-2.753000020980835,-2.318195104598999,0.5696390271186829
1771514233788259600,22.969259521484375,-3.950342893600464,-1.658519983291626,0.9282159805297852
1771514233808644600,22.98964453125,-4.141221046447754,-0.02295999974012375,2.3593719005584717
1771514233829032400,23.010032470703123,-3.0714271068573,2.5092151165008545,3.535844087600708
1771514233849428700,23.0304287109375,-3.659432888031006,2.612993001937866,1.560505986213684
1771514233869825300,23.0508251953125,-0.9120429754257202,1.9251500368118286,-4.104656219482422
1771514233890215700,23.071215576171873,6.591713905334473,-0.2808949947357178,-7.17634916305542
1771514233910607600,23.091607666015626,10.59416675567627,-1.7813889980316162,-3.8571689128875732
1771514233931003600,23.112003662109377,7.971033096313477,-1.740054965019226,-0.35989099740982056
1771514233951401700,23.132401611328124,2.8487110137939453,-0.3142170011997223,0.5381439924240112
1771514233971798800,23.152798828125,0.2116910070180893,1.0809019804000854,-0.991890013217926
1771514233992192500,23.173192626953124,-1.442283034324646,1.7844419479370117,-1.956110954284668
1771514234012584700,23.193584716796874,-1.972409963607788,1.7762819528579712,-1.8007639646530151
1771514234032977700,23.213977783203124,-2.1126649379730225,1.6037299633026123,-0.3476260006427765
1771514234053369000,23.234369140625,-2.6237049102783203,1.2135779857635498,0.7352790236473083
1771514234073762800,23.2547626953125,-2.5348711013793945,0.9270269870758057,1.037466049194336
1771514234094161200,23.2751611328125,-1.0835349559783936,0.06887099891901016,0.6127889752388
1771514234114558200,23.29555810546875,1.7714509963989258,-0.7192109823226929,0.18270599842071533
1771514234134950100,23.3159501953125,4.296209812164307,-1.3072580099105835,0.9221619963645935
1771514234155339800,23.33633984375,3.403938055038452,-0.7893080115318298,2.654249906539917
1771514234175732500,23.356732421875,0.6037529706954956,0.25614601373672485,3.222546100616455
1771514234196128500,23.37712841796875,-0.26960501074790955,1.1735140085220337,2.2543580532073975
1771514234216525300,23.397525390625,1.2828749418258667,1.2080169916152954,0.8339170217514038
1771514234236920800,23.4179208984375,2.6243999004364014,1.0946029424667358,0.837486982345581
1771514234257313800,23.438313720703125,0.9803990125656128,0.6778029799461365,0.9199140071868896
1771514234277705500,23.45870556640625,0.15447600185871124,0.4071359932422638,0.622759997844696
1771514234298096400,23.479096435546875,1.4147289991378784,0.2760779857635498,0.05727500095963478
1771514234318489900,23.49948974609375,1.6035740375518799,0.17021800577640533,-0.5741909742355347
1771514234338882600,23.519882568359375,1.3750489950180054,-0.035447001457214355,-0.877951979637146
1771514234359273500,23.5402734375,0.5957340002059937,0.0306209996342659,-0.6847789883613586
1771514234379664600,23.56066455078125,-1.1693259477615356,0.11416800320148468,0.08120899647474289
1771514234400055600,23.5810556640625,-2.025347948074341,0.15582500398159027,0.41290900111198425
1771514234420450600,23.601450439453124,-1.2759699821472168,-0.12203600257635117,0.3987950086593628
1771514234440848100,23.62184814453125,-0.27226001024246216,-0.5541980266571045,0.46080300211906433
1771514234461244200,23.642244140625,-0.2940790057182312,-0.5693060159683228,0.37434399127960205
1771514234481641000,23.662640869140624,-1.225100040435791,-0.40128400921821594,0.5771239995956421
1771514234502040300,23.683040283203123,-1.429479956626892,0.00900499988347292,0.2878269851207733
1771514234522435800,23.703435791015625,-0.766622006893158,0.27170300483703613,-0.1796170026063919
1771514234542827000,23.723826904296875,1.0329680442810059,-0.1252020001411438,-0.5686280131340027
1771514234563218000,23.744218017578124,1.9077609777450562,-0.41624099016189575,-0.690280020236969
1771514234583609000,23.764609130859377,1.008236050605774,-0.5477690100669861,-0.6862040162086487
1771514234604004600,23.785004638671875,1.7058130502700806,-1.0376009941101074,-1.336838960647583
1771514234624398600,23.805398681640625,3.929279088973999,-1.3635940551757812,-1.287140965461731
1771514234644788700,23.825788818359374,4.798519134521484,-1.5109169483184814,-0.40717199444770813
1771514234665182000,23.846181884765624,2.3775649070739746,-0.9382950067520142,0.48895400762557983
1771514234685580000,23.866580078125,-0.9012740254402161,-0.2507289946079254,0.4027419984340668
1771514234705979600,23.886979736328126,-3.162302017211914,0.6541479825973511,-0.14534200727939606
1771514234726375400,23.90737548828125,-3.4749178886413574,1.149548053741455,-0.5433670282363892
1771514234746768000,23.927767822265626,-2.1060009002685547,0.5866429805755615,-0.6069769859313965
1771514234767163000,23.948162841796876,-0.146014004945755,-0.22687099874019623,-0.2889679968357086
1771514234787560400,23.968560546875,1.2203389406204224,-0.8592299818992615,0.011451000347733498
1771514234807959300,23.988959228515625,1.781898021697998,-0.7107840180397034,0.1944109946489334
1771514234828358400,24.0093583984375,1.1595790386199951,0.009091000072658062,0.20812100172042847
1771514234848752600,24.029752685546875,0.47037801146507263,0.7790570259094238,-0.3130989968776703
1771514234869144800,24.050144775390624,0.0323060005903244,1.2022130489349365,-1.2328109741210938
1771514234889537300,24.070537353515626,1.0811309814453125,0.5777829885482788,-1.759788990020752
1771514234909931500,24.090931640625,2.6170709133148193,-0.42410901188850403,-1.2574410438537598
1771514234930328800,24.111328857421874,3.83770489692688,-0.9910140037536621,-0.32663899660110474
1771514234950725600,24.1317255859375,3.695046901702881,-0.8228790163993835,0.8524370193481445
1771514234971116500,24.152116455078126,1.6682649850845337,-0.34976300597190857,0.9759809970855713
1771514234991506400,24.17250634765625,0.25024598836898804,0.36193498969078064,0.7028589844703674
1771514235011899000,24.19289892578125,-0.37789401412010193,0.7745839953422546,0.29277700185775757
1771514235032291000,24.213291015625,-0.09496299922466278,0.841713011264801,0.3794719874858856
1771514235052681200,24.23368115234375,-0.15721799433231354,0.8288140296936035,0.8477140069007874
1771514235073069000,24.254069091796875,0.1874060034751892,0.8355669975280762,1.1575850248336792
1771514235093454300,24.274454345703123,0.8291400074958801,0.8101599812507629,0.5817649960517883
1771514235113839900,24.29483984375,1.1473309993743896,0.8453069925308228,0.1089949980378151
1771514235134225400,24.315225341796875,0.576433002948761,1.2136080265045166,0.14474999904632568
1771514235154610200,24.335610107421875,-0.09732899814844131,1.2758419513702393,0.17100700736045837
1771514235174994400,24.355994384765626,0.23851999640464783,1.2464380264282227,0.5579460263252258
1771514235195380500,24.37638037109375,0.18731099367141724,1.0772850513458252,0.796675980091095
1771514235215770600,24.3967705078125,-0.7032309770584106,1.0481079816818237,0.7533550262451172
1771514235236161800,24.417161865234377,-1.0589970350265503,1.104140043258667,0.49167400598526
1771514235256550000,24.4375498046875,-1.506324052810669,0.8253179788589478,-0.05922799929976463
1771514235276936000,24.45793603515625,0.6841380000114441,-0.5046730041503906,-0.44727998971939087
1771514235297324300,24.47832421875,3.014259099960327,-1.1493690013885498,0.15305699408054352
1771514235317714200,24.498714111328123,2.5490739345550537,-1.4716399908065796,0.7418209910392761
1771514235338102000,24.51910205078125,0.4457840025424957,-1.4707070589065552,0.5034030079841614
1771514235358492700,24.53949267578125,-1.2735580205917358,-0.9225320219993591,-0.15050199627876282
1771514235378885600,24.5598857421875,-2.634859085083008,0.10268399864435196,-0.21582399308681488
1771514235399278600,24.580278564453124,-2.629992961883545,0.41626399755477905,0.015673000365495682
1771514235419668700,24.600668701171877,-0.7932549715042114,0.31743499636650085,0.22913600504398346
1771514235440056600,24.621056640625,-0.07661499828100204,0.7633579969406128,0.4288400113582611
1771514235460443400,24.641443359375,-0.8517749905586243,0.8580099940299988,-0.13514000177383423
1771514235480834600,24.66183447265625,-0.19710999727249146,1.232766032218933,-1.0082470178604126
1771514235501230000,24.68222998046875,1.4047579765319824,1.1014939546585083,-1.7724599838256836
1771514235521626000,24.702626220703124,4.457655906677246,-0.523626983165741,-2.6478118896484375
1771514235542020000,24.72302001953125,6.910730838775635,-1.8706419467926025,-1.9036999940872192
1771514235562410800,24.74341064453125,6.001284122467041,-1.6196190118789673,-0.05236399918794632
1771514235582801200,24.76380126953125,2.777506113052368,-0.9681559801101685,0.5132750272750854
1771514235603195000,24.78419482421875,-0.2921940088272095,-0.2485090047121048,0.31707099080085754
1771514235623590400,24.80459033203125,-1.9821109771728516,0.437718003988266,0.02686700038611889
1771514235643983600,24.824983642578125,-2.97206711769104,0.8112409710884094,0.004112999886274338
1771514235664375800,24.845375732421875,-3.1147890090942383,0.7359849810600281,0.3705280125141144
1771514235684768000,24.86576806640625,-2.477060079574585,0.5323820114135742,1.0601389408111572
1771514235705158700,24.88615869140625,-1.5502229928970337,0.37849199771881104,1.5305060148239136
1771514235725551000,24.906551025390623,-0.9201800227165222,0.32532501220703125,1.1664890050888062
1771514235745945000,24.926945068359377,0.39836299419403076,-0.017323000356554985,0.3837929964065552
1771514235766337000,24.9473369140625,2.224729061126709,-0.3583419919013977,0.2938379943370819
1771514235786729500,24.9677294921875,4.254806041717529,-1.2288349866867065,0.6829829812049866
1771514235807125800,24.988125732421874,5.111379146575928,-1.5055869817733765,0.7090830206871033
1771514235827520800,25.008520751953125,4.35119104385376,-1.0884929895401,0.22263500094413757
1771514235847912200,25.028912109375,2.056654930114746,-0.41790300607681274,-0.10215800255537033
1771514235868304600,25.0493046875,0.08175399899482727,0.027786999940872192,-0.14237600564956665
1771514235888696800,25.06969677734375,-1.060752034187317,0.4068030118942261,-0.08198600262403488
1771514235909087500,25.09008740234375,-1.1670069694519043,0.551114022731781,0.032660000026226044
1771514235929478400,25.110478515625,-1.5562330484390259,0.4117810130119324,0.11612299829721451
1771514235949869300,25.130869384765624,-1.7030359506607056,0.23807500302791595,-0.2693359851837158
1771514235970261000,25.151260986328126,-0.20134800672531128,-0.14948900043964386,-0.6448040008544922
1771514235990655200,25.1716552734375,1.5216660499572754,-0.94623202085495,-0.7357529997825623
1771514236011048400,25.19204833984375,3.577564001083374,-1.3233510255813599,-0.3600499927997589
1771514236031439400,25.212439453125,3.8325939178466797,-1.1603950262069702,0.09621699899435043
1771514236051833000,25.2328330078125,1.1515589952468872,-0.6533190011978149,0.08307799696922302
1771514236072223500,25.253223388671874,-0.7882609963417053,0.1058489978313446,-0.22628900408744812
1771514236092612600,25.273612548828126,-1.4412260055541992,0.6949840188026428,-0.3166069984436035
1771514236113004000,25.294004150390624,-1.4203360080718994,0.8794379830360413,0.015623999759554863
1771514236133393400,25.314393310546876,-0.9154649972915649,0.8703579902648926,0.30399298667907715
1771514236153781200,25.33478125,-0.05053799971938133,0.5199530124664307,-0.039792001247406006
1771514236174171100,25.355171142578126,1.0456809997558594,-0.024887999519705772,-0.8720690011978149
1771514236194564400,25.375564453125,2.0970520973205566,-0.6051729917526245,-1.4651859998703003
1771514236214957800,25.395957763671873,2.559091091156006,-0.8761820197105408,-0.8831980228424072
1771514236235348500,25.416348388671874,2.0600569248199463,-1.0294209718704224,0.10207699984312057
1771514236255739000,25.43673876953125,0.9312149882316589,-0.6678060293197632,0.324413001537323
1771514236276129800,25.4571298828125,0.04499899968504906,-0.06082100048661232,-0.08048100024461746
1771514236296521000,25.47752099609375,-0.41571199893951416,0.10414499789476395,-0.11846300214529037
1771514236316914000,25.497913818359375,0.07021000236272812,-0.2186489999294281,0.32348600029945374
1771514236337307400,25.518307373046873,0.5913439989089966,-0.08499400317668915,1.0394740104675293
1771514236357702000,25.538701904296875,0.4884699881076813,-0.3825869858264923,0.8283500075340271
1771514236378096000,25.55909619140625,1.4653559923171997,-0.39760199189186096,0.35763299465179443
1771514236398488800,25.57948876953125,1.294721007347107,0.4492180049419403,0.2711459994316101
1771514236418882000,25.599882080078125,0.13564200699329376,0.7012060284614563,-0.31736600399017334
1771514236439274000,25.62027392578125,-0.15230399370193481,1.2442920207977295,-0.556522011756897
1771514236459666000,25.640666015625,-0.37172800302505493,1.2446190118789673,-0.41321998834609985
1771514236480060700,25.661060791015625,0.04264799878001213,0.714493989944458,-0.2322939932346344
1771514236500462300,25.68146240234375,0.8705019950866699,0.6486759781837463,0.07780999690294266
1771514236520865800,25.70186572265625,0.6045219898223877,0.60834801197052,0.17972999811172485
1771514236541267700,25.722267822265625,0.21034300327301025,0.6929410099983215,-0.08812399953603745
