time,seconds_elapsed,z,y,x
1771514211290468400,0.47146826171875,-0.002062499988824129,-0.0009624999947845936,-0.004812499973922968
1771514211300672000,0.481672119140625,-1.5914249420166016,-0.282150000333786,0.2083124965429306
1771514211321077500,0.502077392578125,-13.439112663269043,-2.3758625984191895,1.7825499773025513
1771514211341481200,0.522481201171875,-56.221275329589844,-10.076274871826172,7.601962566375732
1771514211361885700,0.5428857421875,-34.75202560424805,-6.1545000076293945,4.824325084686279
1771514211382088700,0.563088623046875,-18.489349365234375,-3.1563124656677246,2.6303749084472656
1771514211402490000,0.583489990234375,-10.02443790435791,-1.5835875272750854,1.3710124492645264
1771514211423089700,0.604089599609375,-5.23696231842041,-0.8327000141143799,0.7108749747276306
1771514211443489300,0.6244892578125,-2.8489999771118164,-0.4889499843120575,0.4094749987125397
1771514211463891200,0.64489111328125,-1.6004999876022339,-0.3291749954223633,0.28421249985694885
1771514211484292600,0.665292724609375,-0.9611250162124634,-0.2480500042438507,0.18988749384880066
1771514211504691500,0.68569140625,-0.6683874726295471,-0.12952500581741333,0.09624999761581421
1771514211525091000,0.706091064453125,-0.48867499828338623,0.05816249921917915,0.0845625028014183
1771514211545493200,0.7264931640625,-0.2825624942779541,0.1438249945640564,0.13942499458789825
1771514211565895000,0.74689501953125,-0.08057499676942825,0.07411249727010727,0.16060000658035278
1771514211586295300,0.76729541015625,0.033275000751018524,0.028599999845027924,0.10271249711513519
1771514211606695200,0.787695068359375,0.02681249938905239,0.06338749825954437,0.007837500423192978
1771514211627098400,0.808098388671875,-0.05926249921321869,0.12677499651908875,-0.07493750005960464
1771514211647505400,0.82850537109375,-0.12223749607801437,0.13021250069141388,-0.13186250627040863
1771514211667911700,0.84891162109375,-0.11371249705553055,0.03244999796152115,-0.1331000030040741
1771514211688314400,0.869314453125,-0.05857500061392784,-0.08538749814033508,-0.07328750193119049
1771514211708712400,0.88971240234375,-0.022687500342726707,-0.10188750177621841,-0.02474999986588955
1771514211729111800,0.91011181640625,-0.002612499985843897,-0.04221250116825104,-0.01691249944269657
1771514211749518800,0.930518798828125,0.01718750037252903,0,-0.02447500079870224
1771514211769927400,0.950927490234375,0.008387500420212746,0,-0.011962499469518661
1771514211790332700,0.971332763671875,0.08084999769926071,-0.0695749968290329,0.09404999762773514
1771514211810739500,0.991739501953125,0.10353749990463257,-0.05664999783039093,0.13255000114440918
1771514211831146000,1.01214599609375,0.03148749843239784,-0.0005499999970197678,0.08483749628067017
1771514211851550000,1.032550048828125,-0.045237500220537186,0.025162499397993088,-0.03162499889731407
1771514211871957800,1.052957763671875,-0.057612501084804535,-0.015537500381469727,-0.11811249703168869
1771514211892364000,1.073364013671875,-0.045649997889995575,-0.04455000162124634,-0.12017499655485153
1771514211912766200,1.09376611328125,-0.015399999916553497,-0.009487500414252281,-0.07259999960660934
1771514211933168400,1.11416845703125,0.03148749843239784,0.09583749622106552,-0.05362499877810478
1771514211953570300,1.1345703125,-0.016499999910593033,0.18741250038146973,-0.045237500220537186
1771514211973971500,1.154971435546875,-0.002749999985098839,0.19030000269412994,-0.05389999970793724
1771514211994371300,1.175371337890625,0.09157499670982361,0.07342500239610672,-0.07631249725818634
1771514212014770200,1.195770263671875,0.18246249854564667,-0.09542500227689743,-0.09693749994039536
1771514212035169000,1.2161689453125,0.20363749563694,-0.18150000274181366,-0.12966249883174896
1771514212055570400,1.2365703125,0.10615000128746033,-0.10752499848604202,-0.2008875012397766
1771514212075974100,1.25697412109375,-0.02199999988079071,0.012787500396370888,-0.2535499930381775
1771514212096377300,1.27737744140625,-0.04963750019669533,0.04661250114440918,-0.2447499930858612
1771514212116777700,1.29777783203125,0.015949999913573265,-0.014024999924004078,-0.20982499420642853
1771514212137180400,1.318180419921875,0.05321250110864639,-0.08318749815225601,-0.170912504196167
1771514212157584100,1.338584228515625,0.04193750023841858,-0.03946249932050705,-0.13983750343322754
1771514212177985500,1.358985595703125,0.023237500339746475,0.08153750002384186,-0.12443749606609344
1771514212198389500,1.379389404296875,0.03616249933838844,0.15812499821186066,-0.09487500041723251
1771514212218794500,1.39979443359375,0.0719124972820282,0.11618749797344208,-0.02708750031888485
1771514212239196000,1.42019580078125,0.09363749623298645,0.002474999986588955,0.05706249922513962
1771514212259595000,1.440594970703125,0.11948750168085098,-0.013199999928474426,0.10009999573230743
1771514212279996400,1.460996337890625,0.035612501204013824,0.11192499846220016,0.09624999761581421
1771514212300399900,1.48139990234375,-0.08951249718666077,0.21931250393390656,0.08236250281333923
1771514212320804400,1.501804443359375,-0.06929999589920044,0.1541374921798706,0.045099999755620956
1771514212341209900,1.5222099609375,-0.047849997878074646,0.05843750014901161,0.016224998980760574
1771514212361616400,1.542616455078125,-0.05706249922513962,-0.06132499873638153,-0.004674999974668026
1771514212382025700,1.563025634765625,-0.028462499380111694,-0.11824999749660492,-0.0013749999925494194
1771514212402435600,1.583435546875,-0.020899999886751175,-0.0976250022649765,-0.0015124999918043613
1771514212422840000,1.603840087890625,-0.010174999944865704,-0.047849997878074646,-0.0006874999962747097
1771514212443241000,1.624240966796875,-0.011549999937415123,-0.004674999974668026,0.015399999916553497
1771514212463641300,1.644641357421875,0.0019249999895691872,-0.015949999913573265,0.011549999937415123
1771514212484042000,1.6650419921875,0.05816249921917915,-0.09446249902248383,0.010587500408291817
1771514212504446200,1.6854462890625,0.06696250289678574,-0.12925000488758087,-0.01732499897480011
1771514212524851200,1.705851318359375,0.0387750007212162,-0.035887498408555984,-0.027499999850988388
1771514212545257200,1.72625732421875,0.08662500232458115,0.03341250121593475,0.01347499992698431
1771514212565662500,1.746662353515625,0.12856249511241913,-0.03423750028014183,0.03135000169277191
1771514212586066000,1.76706591796875,0.1564749926328659,-0.12911249697208405,-0.006599999964237213
1771514212606467800,1.7874677734375,0.16032500565052032,-0.11302500218153,-0.08291249722242355
1771514212626868500,1.807868408203125,0.031212499365210533,-0.011137500405311584,-0.13516250252723694
1771514212647270000,1.828269775390625,-0.05431250110268593,0.05335000157356262,-0.0943249985575676
1771514212667672600,1.848672607421875,0.002474999986588955,0.026262499392032623,0.025575000792741776
1771514212688074200,1.86907421875,0.06228749826550484,-0.03203750029206276,0.13750000298023224
1771514212708472300,1.889472412109375,0.02488750033080578,0.02708750031888485,0.14726249873638153
1771514212728877000,1.909876953125,-0.03959999978542328,0.14698749780654907,0.1163249984383583
1771514212749286400,1.930286376953125,-0.05142499879002571,0.12086249887943268,0.12925000488758087
1771514212769694500,1.950694580078125,-0.07699999958276749,-0.004399999976158142,0.10559999942779541
1771514212790099500,1.971099365234375,-0.13667500019073486,-0.05004999786615372,0.03464999794960022
1771514212810504700,1.991504638671875,-0.07782500237226486,0.10724999755620956,0.0845625028014183
1771514212830910700,2.01191064453125,0.010862499475479126,0.1350249946117401,0.20721249282360077
1771514212851313000,2.03231298828125,0.08483749628067017,0.0705375000834465,0.26138749718666077
1771514212871715000,2.052715087890625,0.12691250443458557,-0.03396249935030937,0.23086249828338623
1771514212892119000,2.073119140625,0.06710000336170197,-0.07108750194311142,0.1288374960422516
1771514212912521700,2.093521728515625,-0.0005499999970197678,-0.07479999959468842,0.07975000143051147
1771514212932924700,2.113924560546875,-0.008662499487400055,-0.01209999993443489,0.1274625062942505
1771514212953327400,2.134327392578125,-0.03904999792575836,0.10711249709129333,0.1722874939441681
1771514212973731300,2.1547314453125,-0.05224999785423279,0.14794999361038208,0.16169999539852142
1771514212994140000,2.175139892578125,-0.02419999986886978,0.10188750177621841,0.14368750154972076
1771514213014545000,2.195544921875,0.05912499874830246,0.04592499881982803,0.15166249871253967
1771514213034944800,2.21594482421875,0.1073874980211258,0.04647500067949295,0.1344749927520752
1771514213055345400,2.236345458984375,0.010724999941885471,0.06173750013113022,0.07397499680519104
1771514213075747000,2.2567470703125,-0.07108750194311142,0.009624999947845936,-0.002062499988824129
1771514213096149000,2.27714892578125,-0.021449999883770943,-0.11728750169277191,-0.023924998939037323
1771514213116551400,2.297551513671875,0.0845625028014183,-0.19676250219345093,0.04977500066161156
1771514213136955000,2.317954833984375,0.10807500034570694,-0.09239999949932098,0.16830000281333923
1771514213157355300,2.338355224609375,0.09377499669790268,0.08098749816417694,0.22659999132156372
1771514213177757000,2.3587568359375,0.06613750010728836,0.12223749607801437,0.19112500548362732
1771514213198160000,2.379159912109375,0.06407500058412552,0.09033749997615814,0.1270499974489212
1771514213218561300,2.399561279296875,0.07768750190734863,0.05967500060796738,0.0966624990105629
1771514213238962200,2.419962158203125,0.03946249932050705,0.018562499433755875,0.050462499260902405
1771514213259364900,2.44036474609375,-0.03272499889135361,-0.02213750034570694,-0.02227500081062317
1771514213279766800,2.460766845703125,-0.0952875018119812,-0.03891250118613243,-0.08648750185966492
1771514213300167400,2.48116748046875,-0.13750000298023224,-0.0644875019788742,-0.09982500225305557
1771514213320569000,2.501569091796875,-0.10986249893903732,-0.07851249724626541,-0.022687500342726707
1771514213340972000,2.521971923828125,-0.04619999974966049,-0.029012499377131462,0.06366249918937683
1771514213361374700,2.542374755859375,-0.011412499472498894,0.0812624990940094,0.1214125007390976
1771514213381775400,2.562775390625,-0.058024998754262924,0.2092749923467636,0.17586250603199005
1771514213402175000,2.583175048828125,-0.0695749968290329,0.26977500319480896,0.20913749933242798
1771514213422574800,2.603574951171875,-0.0193875003606081,0.2307250052690506,0.2297624945640564
1771514213442972400,2.623972412109375,0.03203750029206276,0.1354375034570694,0.23966249823570251
1771514213463370000,2.644369873046875,0.05403750017285347,0.07315000146627426,0.20102499425411224
1771514213483769600,2.66476953125,0.01759999990463257,0.0471624992787838,0.09102500230073929
1771514213504169700,2.685169677734375,-0.10670000314712524,0.03231250122189522,-0.06311249732971191
1771514213524574200,2.70557421875,-0.23732499778270721,-0.0013749999925494194,-0.1938749998807907
1771514213544980200,2.725980224609375,-0.2546499967575073,-0.05224999785423279,-0.23897500336170197
1771514213565383700,2.7463837890625,-0.18177500367164612,-0.11866249889135361,-0.19071249663829803
1771514213585784300,2.766784423828125,-0.14685000479221344,-0.10064999759197235,-0.1438249945640564
1771514213606183200,2.78718310546875,-0.18892499804496765,-0.031212499365210533,-0.1527625024318695
1771514213626583000,2.8075830078125,-0.16788749396800995,0.002612499985843897,-0.16087499260902405
1771514213646981400,2.8279814453125,-0.08855000138282776,0.006324999965727329,-0.11481250077486038
1771514213667379500,2.84837939453125,-0.043449997901916504,0.0030249999836087227,-0.05623750016093254
1771514213687780400,2.8687802734375,0.017875000834465027,-0.01347499992698431,-0.04262499883770943
1771514213708179500,2.889179443359375,0.05843750014901161,-0.030387500301003456,-0.06544999778270721
1771514213728575000,2.909574951171875,0.035887498408555984,-0.02969999983906746,-0.1634874939918518
1771514213748973300,2.929973388671875,0.020899999886751175,-0.025162499397993088,-0.28737500309944153
1771514213769376000,2.9503759765625,0.0387750007212162,-0.07095000147819519,-0.35282498598098755
1771514213789781800,2.97078173828125,0.05444999784231186,-0.19002500176429749,-0.3390749990940094
1771514213810183200,2.99118310546875,0.04179999977350235,-0.22247499227523804,-0.32945001125335693
1771514213830582000,3.01158203125,-0.12086249887943268,0.023924998939037323,-0.4195125102996826
1771514213850982100,3.031982177734375,-0.14272500574588776,0.04221250116825104,-0.4094749987125397
1771514213871380200,3.052380126953125,-0.06655000150203705,-0.08401250094175339,-0.31927499175071716
1771514213891777800,3.07277783203125,0.045099999755620956,-0.2153249979019165,-0.22948749363422394
1771514213912177700,3.093177734375,0.09968750178813934,-0.19676250219345093,-0.19043749570846558
1771514213932576500,3.113576416015625,0.06173750013113022,-0.09817499667406082,-0.16596250236034393
1771514213952977200,3.13397705078125,0.0317624993622303,-0.033137500286102295,-0.15496249496936798
1771514213973382000,3.1543818359375,0.07369999587535858,-0.08758749812841415,-0.1256749927997589
1771514213993782800,3.17478271484375,0.14368750154972076,-0.1568875014781952,-0.06613750010728836
1771514214014178800,3.1951787109375,0.12347500026226044,-0.09446249902248383,-0.03973750025033951
1771514214034577200,3.2155771484375,0.004674999974668026,0.00494999997317791,-0.07438749819993973
1771514214054978300,3.235978271484375,-0.08043749630451202,0.03355000168085098,-0.12196250259876251
1771514214075379500,3.25637939453125,-0.08992499858140945,-0.014437500387430191,-0.12113749980926514
1771514214095780900,3.27678076171875,-0.03918749839067459,-0.08002500236034393,-0.05871250107884407
1771514214116184800,3.297184814453125,0.00976249948143959,-0.07356250286102295,0.031212499365210533
1771514214136587500,3.31758740234375,0.009487500414252281,0.045099999755620956,0.08758749812841415
1771514214156984300,3.337984375,-0.010862499475479126,0.13474999368190765,0.06875000149011612
1771514214177380900,3.358380859375,-0.008799999952316284,0.05238749831914902,0.030937500298023224
1771514214197779200,3.378779296875,-0.006462499964982271,-0.11495000123977661,0.0057749999687075615
1771514214218180000,3.39918017578125,0.0193875003606081,-0.1592250019311905,-0.015812499448657036
1771514214238579500,3.419579345703125,0.00013749999925494194,-0.07590000331401825,-0.005087499972432852
1771514214258978000,3.43997802734375,-0.04688749834895134,0.00989999994635582,0.04922499880194664
1771514214279376400,3.46037646484375,-0.033137500286102295,0.030524998903274536,0.07039999961853027
1771514214299772000,3.48077197265625,-0.008937500417232513,-0.002199999988079071,0.015949999913573265
1771514214320170500,3.50117041015625,0.003987499978393316,-0.03506249934434891,-0.004124999977648258
1771514214340570600,3.521570556640625,-0.025712499395012856,-0.10848750174045563,-0.04358749836683273
1771514214360971800,3.5419716796875,-0.08992499858140945,-0.10752499848604202,-0.07837499678134918
1771514214381369300,3.562369384765625,-0.07136250287294388,-0.06806249916553497,-0.06379999965429306
1771514214401762300,3.58276220703125,-0.05871250107884407,0.010449999943375587,-0.021449999883770943
1771514214422161000,3.603160888671875,-0.07699999958276749,0.07809999585151672,0.0005499999970197678
1771514214442563800,3.623563720703125,-0.10092499852180481,0.082225002348423,-0.017875000834465027
1771514214462967800,3.6439677734375,-0.14121249318122864,0.0541750006377697,-0.06984999775886536
1771514214483371500,3.66437158203125,-0.1508374959230423,0.025575000792741776,-0.10216250270605087
1771514214503775000,3.68477490234375,-0.12636250257492065,0.03244999796152115,-0.08387500047683716
1771514214524181000,3.705180908203125,-0.06531249731779099,0.09501250088214874,-0.03918749839067459
1771514214544584700,3.725584716796875,-0.00013749999925494194,0.16788749396800995,0.021312499418854713
1771514214564986600,3.745986572265625,0.0147124994546175,0.23100000619888306,0.08084999769926071
1771514214585390000,3.76639013671875,0.03616249933838844,0.24873749911785126,0.13474999368190765
1771514214605790200,3.786790283203125,0.06627500057220459,0.20776249468326569,0.17641249299049377
1771514214626188800,3.807188720703125,0.06641250103712082,0.14162500202655792,0.1942874938249588
1771514214646589400,3.82758935546875,0.08813749998807907,0.10436250269412994,0.19483749568462372
1771514214666990000,3.847989990234375,0.12031249701976776,0.07548750191926956,0.14657500386238098
1771514214687390500,3.868390380859375,0.06668750196695328,-0.02502499893307686,0.023512499406933784
1771514214707790300,3.888790283203125,-0.03189999982714653,-0.1989624947309494,-0.1214125007390976
1771514214728188000,3.90918798828125,-0.09735000133514404,-0.30002498626708984,-0.24818749725818634
1771514214748586500,3.92958642578125,-0.1373624950647354,-0.26963749527931213,-0.34759998321533203
1771514214768988000,3.94998779296875,-0.2022625058889389,-0.1788875013589859,-0.37097498774528503
1771514214789388500,3.970388427734375,-0.25423750281333923,-0.08772499859333038,-0.33192500472068787
1771514214809787100,3.990787109375,-0.2307250052690506,-0.04179999977350235,-0.304562509059906
1771514214830189300,4.011189208984375,-0.1993750035762787,-0.010174999944865704,-0.2761000096797943
1771514214850593000,4.031593017578125,-0.16279999911785126,-0.004537499975413084,-0.23553749918937683
1771514214870995200,4.0519951171875,-0.1494625061750412,0.011549999937415123,-0.21175000071525574
1771514214891398100,4.072398193359375,-0.17682500183582306,0.05348749831318855,-0.21449999511241913
1771514214911800800,4.09280078125,-0.15468749403953552,0.06888750195503235,-0.2116124927997589
1771514214932203300,4.113203369140625,-0.13433749973773956,0.0042624999769032,-0.17352500557899475
1771514214952605000,4.13360498046875,-0.11715000122785568,-0.028049999848008156,-0.15097500383853912
1771514214973006300,4.15400634765625,-0.09116250276565552,0.05458749830722809,-0.14217500388622284
1771514214993408300,4.174408203125,-0.042899999767541885,0.14698749780654907,-0.0859375
1771514215013809200,4.19480908203125,0.05376249924302101,0.14891250431537628,-0.0006874999962747097
1771514215034211000,4.215211181640625,0.08318749815225601,0.11701250076293945,0.050599999725818634
1771514215054610400,4.2356103515625,0.06462500244379044,0.13227500021457672,0.057475000619888306
1771514215075011300,4.25601123046875,0.06393750011920929,0.18603749573230743,0.09363749623298645
1771514215095415800,4.276415771484375,0.057337500154972076,0.22687499225139618,0.14836250245571136
1771514215115815700,4.296815673828125,0.10037499666213989,0.2204124927520752,0.14891250431537628
1771514215136215800,4.3172158203125,0.09143749624490738,0.14561249315738678,0.10628750175237656
1771514215156617700,4.33761767578125,0.07315000146627426,0.026399999856948853,0.07411249727010727
1771514215177015600,4.358015625,0.07356250286102295,-0.04028749838471413,0.050462499260902405
1771514215197412400,4.378412353515625,0.011824999935925007,-0.05444999784231186,0.018837500363588333
1771514215217810000,4.398809814453125,-0.023649999871850014,-0.07259999960660934,-0.002749999985098839
1771514215238208300,4.419208251953125,-0.0008249999955296516,-0.10202500224113464,0.005912499967962503
1771514215258606800,4.43960693359375,0.08002500236034393,-0.1200374960899353,0.03918749839067459
1771514215279004200,4.460004150390625,0.16871249675750732,-0.1434125006198883,0.05816249921917915
1771514215299404500,4.480404541015625,0.20336249470710754,-0.17434999346733093,0.05458749830722809
1771514215319805200,4.50080517578125,0.15248750150203705,-0.1344749927520752,0.06641250103712082
1771514215340200400,4.521200439453125,0.1387374997138977,-0.11151249706745148,0.07218749821186066
1771514215360596500,4.541596435546875,0.1264999955892563,-0.1083500012755394,0.08978749811649323
1771514215380992300,4.5619921875,0.17036250233650208,-0.1555124968290329,0.09363749623298645
1771514215401388500,4.582388427734375,0.1303499937057495,-0.12223749607801437,0.06655000150203705
1771514215421787600,4.60278759765625,0.06393750011920929,-0.04688749834895134,0.037812501192092896
1771514215442185200,4.623185302734375,0.022549999877810478,0.030112499371170998,0.040562499314546585
1771514215462583300,4.643583251953125,0.0147124994546175,0.03355000168085098,0.06764999777078629
1771514215482983400,4.6639833984375,0.0728750005364418,0.0005499999970197678,0.12828749418258667
1771514215503383300,4.68438330078125,0.10807500034570694,0.05555000156164169,0.12416250258684158
1771514215523782400,4.704782470703125,0.0009624999947845936,0.10064999759197235,-0.05472499877214432
1771514215544179700,4.7251796875,-0.05403750017285347,-0.0030249999836087227,-0.14533749222755432
1771514215564576800,4.74557666015625,0.06833750009536743,-0.24736249446868896,-0.03657500073313713
1771514215584974300,4.765974365234375,0.14231249690055847,-0.42707499861717224,0.015675000846385956
1771514215605374700,4.786374755859375,0.0695749968290329,-0.30373749136924744,-0.043037500232458115
1771514215625776000,4.806776123046875,0.0340999998152256,-0.07273750007152557,-0.11976250261068344
1771514215646175200,4.82717529296875,0.04193750023841858,-0.054999999701976776,-0.20308749377727509
1771514215666572800,4.84757275390625,-0.0010999999940395355,-0.24034999310970306,-0.3605250120162964
1771514215686973000,4.867972900390625,-0.050187498331069946,-0.4745124876499176,-0.5307499766349792
1771514215707375600,4.888375732421875,-0.11082500219345093,-0.5095750093460083,-0.5917999744415283
1771514215727778000,4.908778076171875,-0.1942874938249588,-0.2815999984741211,-0.6115999817848206
1771514215748178700,4.9291787109375,-0.2441999912261963,-0.0518375001847744,-0.6146249771118164
1771514215768578600,4.94957861328125,-0.12127500027418137,0.09212499856948853,-0.4353249967098236
1771514215788978200,4.969978271484375,-0.02983750030398369,0.13186250627040863,-0.3301374912261963
1771514215809373700,4.990373779296875,0.1313125044107437,0.21175000071525574,-0.13832500576972961
1771514215829769200,5.010769287109375,0.23319999873638153,0.28366249799728394,0.013062499463558197
1771514215850166300,5.031166259765625,0.29906249046325684,0.24598750472068787,0.09281250089406967
1771514215870563300,5.051563232421875,0.3044250011444092,0.059950001537799835,0.07466249912977219
1771514215890962700,5.071962646484375,0.25891250371932983,0.03973750025033951,0.04895000159740448
1771514215911363300,5.09236328125,0.20212499797344208,0.07369999587535858,0.04152499884366989
1771514215931762000,5.112761962890625,0.20941250026226044,0.07397499680519104,0.10958749800920486
1771514215952159500,5.133159423828125,0.21834999322891235,0.05926249921321869,0.1588124930858612
1771514215972554800,5.1535546875,0.15207499265670776,-0.014437500387430191,0.09116250276565552
1771514215992950800,5.17395068359375,0.09817499667406082,-0.16060000658035278,0.010862499475479126
1771514216013347600,5.19434765625,0.030799999833106995,-0.33563750982284546,-0.05843750014901161
1771514216033742000,5.2147421875,-0.006049999967217445,-0.27445000410079956,-0.0013749999925494194
1771514216054140200,5.23514013671875,-0.030524998903274536,0.06544999778270721,0.16087499260902405
1771514216074539000,5.2555390625,-0.06338749825954437,0.27898749709129333,0.30566251277923584
1771514216094940200,5.275940185546875,-0.23292499780654907,0.5498625040054321,0.2942500114440918
1771514216115343600,5.296343505859375,-0.28049999475479126,0.6679750084877014,0.35997501015663147
1771514216135745800,5.316745849609375,-0.07108750194311142,0.3922874927520752,0.564300000667572
1771514216156145400,5.3371455078125,0.002749999985098839,0.227012500166893,0.5274500250816345
1771514216176543500,5.35754345703125,-0.014574999921023846,0.2387000024318695,0.37950000166893005
1771514216196942300,5.3779423828125,0.023512499406933784,0.19401249289512634,0.32945001125335693
1771514216217339400,5.39833935546875,0.03217500075697899,0.07315000146627426,0.24433749914169312
1771514216237737000,5.418737060546875,-0.05224999785423279,-0.05087500065565109,0.057887498289346695
1771514216258134000,5.439134033203125,-0.15468749403953552,-0.09652499854564667,-0.13667500019073486
1771514216278528300,5.4595283203125,-0.1471250057220459,-0.07686249911785126,-0.20047499239444733
1771514216298922800,5.4799228515625,-0.06998749822378159,-0.08415000140666962,-0.16046249866485596
1771514216319322600,5.500322509765625,-0.03423750028014183,-0.05898749828338623,-0.13516250252723694
1771514216339726000,5.52072607421875,-0.05073750019073486,0.02419999986886978,-0.13433749973773956
1771514216360126700,5.541126708984375,-0.047575000673532486,0.04936249926686287,-0.12457499653100967
1771514216380525800,5.56152587890625,-0.057612501084804535,0.029012499377131462,-0.08304999768733978
1771514216400925000,5.581925048828125,-0.06929999589920044,0.1391499936580658,-0.010999999940395355
1771514216421322500,5.602322509765625,-0.00976249948143959,0.22728750109672546,0.11769999563694
1771514216441717500,5.622717529296875,0.14918750524520874,0.18933749198913574,0.30428749322891235
1771514216462111200,5.643111328125,0.3686375021934509,-0.020349999889731407,0.49101248383522034
1771514216482504200,5.663504150390625,0.5102624893188477,-0.09459999948740005,0.6198499798774719
1771514216502896000,5.683896240234375,0.5483499765396118,0.03616249933838844,0.7005624771118164
1771514216523288800,5.704288818359375,0.591112494468689,0.0518375001847744,0.7107374668121338
1771514216543486200,5.724486328125,0.6143500208854675,-0.025575000792741776,0.6701750159263611
1771514216553784600,5.73478466796875,0.6315374970436096,-0.28187498450279236,0.5010499954223633
1771514216574286000,5.7552861328125,0.6180624961853027,-0.559487521648407,0.2572624981403351
1771514216594692000,5.775692138671875,0.5616874694824219,-0.47478750348091125,0.1798499971628189
1771514216615093800,5.79609375,0.3577750027179718,-0.05431250110268593,0.17641249299049377
1771514216635491800,5.816491943359375,0.1293874979019165,0.1859000027179718,0.023237500339746475
1771514216655889700,5.8368896484375,-0.09253749996423721,0.10271249711513519,-0.258774995803833
1771514216676292900,5.85729296875,-0.25987499952316284,-0.10161250084638596,-0.4692874848842621
1771514216696697900,5.87769775390625,-0.26592499017715454,-0.2563000023365021,-0.46860000491142273
1771514216717099300,5.898099365234375,-0.2204124927520752,-0.3129499852657318,-0.3634124994277954
1771514216737498000,5.918498046875,-0.18782499432563782,-0.29727500677108765,-0.25753748416900635
1771514216757897000,5.93889697265625,-0.16032500565052032,-0.22756250202655792,-0.14630000293254852
1771514216778296000,5.959296142578125,-0.15496249496936798,-0.1621125042438507,-0.008249999955296516
1771514216798697500,5.979697509765625,-0.1451999992132187,-0.1344749927520752,0.13420000672340393
1771514216819104800,6.000104736328125,-0.10078749805688858,-0.19786250591278076,0.2157374918460846
1771514216839511800,6.02051171875,-0.0943249985575676,-0.3592875003814697,0.2316875010728836
1771514216859914500,6.04091455078125,-0.11811249703168869,-0.5022875070571899,0.25753748416900635
1771514216880313600,6.061313720703125,-0.14794999361038208,-0.5387250185012817,0.3218874931335449
1771514216900711000,6.0817109375,-0.16060000658035278,-0.5139750242233276,0.31267499923706055
1771514216921111600,6.102111572265625,-0.19277499616146088,-0.4908750057220459,0.30346250534057617
1771514216941516000,6.12251611328125,-0.24255000054836273,-0.39544999599456787,0.3067624866962433
1771514216961920500,6.14292041015625,-0.3086875081062317,-0.2523125112056732,0.3143250048160553
1771514216982322700,6.16332275390625,-0.33742499351501465,-0.19043749570846558,0.2751374840736389
1771514217002723300,6.183723388671875,-0.3708375096321106,-0.22673749923706055,0.17710000276565552
1771514217023123000,6.204123046875,-0.4189625084400177,-0.22605000436306,0.07851249724626541
1771514217043523800,6.22452392578125,-0.5057250261306763,-0.14272500574588776,-0.016362499445676804
1771514217063926300,6.24492626953125,-0.5483499765396118,-0.07259999960660934,-0.08621250092983246
1771514217084330200,6.265330322265625,-0.5267624855041504,-0.035887498408555984,-0.11096250265836716
1771514217104733200,6.285733154296875,-0.5267624855041504,0.020212499424815178,-0.1097249984741211
1771514217125133000,6.306133056640625,-0.519474983215332,0.11935000121593475,-0.05073750019073486
1771514217145531600,6.32653173828125,-0.4950000047683716,0.20212499797344208,0.03657500073313713
1771514217165930500,6.346930419921875,-0.47753748297691345,0.09047500044107437,0.07837499678134918
1771514217186333000,6.3673330078125,-0.5368000268936157,-0.1498750001192093,0.03437500074505806
1771514217206737200,6.387737060546875,-0.5674625039100647,-0.2653749883174896,0.018699999898672104
1771514217227136500,6.408136474609375,-0.5201625227928162,-0.27582499384880066,0.13062499463558197
1771514217247534600,6.42853466796875,-0.48276248574256897,-0.18108749389648438,0.24928750097751617
1771514217267933400,6.448933349609375,-0.5494499802589417,0.11481250077486038,0.24969999492168427
1771514217288330800,6.469330810546875,-0.7385125160217285,0.5541250109672546,0.12182500213384628
1771514217308729000,6.48972900390625,-0.9279875159263611,0.8655624985694885,-0.09858749806880951
1771514217329131000,6.510131103515625,-1.012274980545044,0.7552874684333801,-0.3375625014305115
1771514217349532400,6.530532470703125,-0.915612518787384,0.2872374951839447,-0.48413750529289246
1771514217369932000,6.55093212890625,-0.7418124675750732,-0.07878749817609787,-0.47850000858306885
1771514217390329600,6.57132958984375,-0.40424999594688416,-0.062150001525878906,-0.09968750178813934
1771514217410724400,6.591724365234375,-0.20102499425411224,0.18273749947547913,0.20432500541210175
1771514217431119400,6.612119384765625,-0.08689999580383301,0.5450500249862671,0.36313748359680176
1771514217451515000,6.632514892578125,-0.026262499392032623,0.8599249720573425,0.37564998865127563
1771514217471911400,6.652911376953125,-0.0752125009894371,0.8127624988555908,0.25850000977516174
1771514217492311600,6.6733115234375,-0.05871250107884407,0.3764750063419342,0.1671999990940094
1771514217512716500,6.693716552734375,0.07411249727010727,-0.15716250240802765,0.18892499804496765
1771514217533123000,6.714123046875,0.21587499976158142,-0.4904625117778778,0.28806251287460327
1771514217553528300,6.7345283203125,0.405349999666214,-0.6117374897003174,0.5498625040054321
1771514217573929500,6.754929443359375,0.5649874806404114,-0.4334000051021576,0.8896250128746033
1771514217594327300,6.775327392578125,0.5154874920845032,-0.12306249886751175,1.0404624938964844
1771514217614724400,6.795724365234375,0.29356250166893005,-0.05376249924302101,0.803137481212616
1771514217635121700,6.81612158203125,0.22206249833106995,-0.3708375096321106,0.45237499475479126
1771514217655521500,6.836521484375,0.48606249690055847,-0.8138625025749207,0.47341248393058777
1771514217675922400,6.85692236328125,0.909974992275238,-0.980650007724762,0.8383374810218811
1771514217696320300,6.8773203125,1.1310750246047974,-0.6517499685287476,1.177412509918213
1771514217716715500,6.897715576171875,0.7745375037193298,0.12430000305175781,1.0374374389648438
1771514217737112000,6.918112060546875,-0.09624999761581421,0.8657000064849854,0.23127499222755432
1771514217757510700,6.9385107421875,-0.7284749746322632,0.6458374857902527,-0.8855000138282776
1771514217777908500,6.958908447265625,-1.0766249895095825,0.23017500340938568,-1.7755374908447266
1771514217798305000,6.979304931640625,-1.0172250270843506,-0.4394499957561493,-2.1502249240875244
1771514217818701600,6.99970166015625,-0.7888374924659729,-0.8398500084877014,-2.0095624923706055
1771514217839099400,7.020099365234375,-0.49678748846054077,-0.691349983215332,-1.470425009727478
1771514217859497700,7.040497802734375,-0.1289750039577484,-0.15125000476837158,-0.7229750156402588
1771514217879896300,7.060896240234375,0.14272500574588776,0.45746248960494995,-0.04028749838471413
1771514217900295700,7.081295654296875,0.20583750307559967,1.0969749689102173,0.4723125100135803
1771514217920696300,7.1016962890625,0.1093124970793724,1.2020249366760254,0.49623748660087585
1771514217941096000,7.122095947265625,0.0006874999962747097,1.0879000425338745,0.3973749876022339
1771514217961490000,7.142489990234375,-0.08346249908208847,0.7789375185966492,0.26124998927116394
1771514217981884700,7.162884765625,-0.05898749828338623,0.358599990606308,0.20721249282360077
1771514218002281000,7.183281005859375,0.07823749631643295,-0.05843750014901161,0.31349998712539673
1771514218022678000,7.203677978515625,0.3377000093460083,-0.3745499849319458,0.608162522315979
1771514218043075800,7.224075927734375,0.7551500201225281,-0.5501375198364258,1.0870749950408936
1771514218063474400,7.244474365234375,1.1175999641418457,-0.5560500025749207,1.4906375408172607
1771514218083872300,7.264872314453125,1.1368499994277954,-0.2712875008583069,1.576300024986267
1771514218104266000,7.285265869140625,0.7283374667167664,0.3485625088214874,1.3539625406265259
1771514218124658400,7.305658447265625,-0.07603749632835388,1.0759375095367432,0.7596874833106995
1771514218145049600,7.326049560546875,-0.8618500232696533,1.3172500133514404,-0.11233749985694885
1771514218165440000,7.34643994140625,-1.0819875001907349,0.7445625066757202,-0.8062999844551086
1771514218185833000,7.3668330078125,-0.744700014591217,-0.1985500007867813,-0.9777625203132629
1771514218206228700,7.387228759765625,-0.17242500185966492,-0.8383374810218811,-0.6465250253677368
1771514218226622500,7.40762255859375,0.2903999984264374,-0.8266500234603882,-0.11852499842643738
1771514218247014000,7.428013916015625,0.2708750069141388,-0.26606249809265137,0.11618749797344208
1771514218267407600,7.44840771484375,-0.1303499937057495,0.3091000020503998,-0.06627500057220459
1771514218287803100,7.46880322265625,-0.30896249413490295,0.3712500035762787,-0.19470000267028809
1771514218308196900,7.48919677734375,-0.1303499937057495,0.12540000677108765,-0.049912501126527786
1771514218328587800,7.509587890625,0.13956250250339508,-0.06146249920129776,0.20721249282360077
1771514218348979500,7.5299794921875,0.36602500081062317,-0.18108749389648438,0.4515500068664551
1771514218369373700,7.550373779296875,0.4288625121116638,-0.2815999984741211,0.5384500026702881
1771514218389770500,7.5707705078125,0.3900874853134155,-0.43601250648498535,0.4820750057697296
1771514218410168000,7.59116796875,0.4819374978542328,-0.5534374713897705,0.5293750166893005
1771514218430562000,7.61156201171875,0.47671249508857727,-0.3452624976634979,0.6507874727249146
1771514218450955000,7.631955078125,0.17723749577999115,-0.12966249883174896,0.4479750096797943
1771514218471350000,7.65235009765625,-0.17641249299049377,-0.08346249908208847,0.06943749636411667
1771514218491744000,7.672743896484375,-0.4723125100135803,-0.23196250200271606,-0.3361875116825104
1771514218512138200,7.69313818359375,-0.6687999963760376,-0.3665750026702881,-0.6089875102043152
1771514218532536000,7.7135361328125,-0.7643625140190125,-0.3260124921798706,-0.6643999814987183
1771514218552934400,7.733934326171875,-0.6837875247001648,-0.21656249463558197,-0.49898749589920044
1771514218573329200,7.7543291015625,-0.5714499950408936,-0.11522500216960907,-0.30250000953674316
1771514218593723000,7.774722900390625,-0.48399999737739563,-0.05582499876618385,-0.16335000097751617
1771514218614115800,7.79511572265625,-0.4357374906539917,-0.12031249701976776,-0.09721250087022781
1771514218634509000,7.815509033203125,-0.5739250183105469,-0.18287499248981476,-0.21559999883174896
1771514218654903800,7.83590380859375,-0.7647749781608582,-0.0030249999836087227,-0.2917749881744385
1771514218675299300,7.85629931640625,-0.5299249887466431,0.27390000224113464,0.08167500048875809
1771514218695695600,7.876695556640625,0.11769999563694,0.40727499127388,0.762024998664856
1771514218716091100,7.897091064453125,0.43834999203681946,0.36355000734329224,1.029462456703186
1771514218736484600,7.917484619140625,0.0009624999947845936,0.17352500557899475,0.47203749418258667
1771514218756877300,7.937877197265625,-0.7441499829292297,0.0057749999687075615,-0.4235000014305115
1771514218777269000,7.95826904296875,-1.0660375356674194,-0.09033749997615814,-0.8520874977111816
1771514218797658000,7.978658203125,-0.941462516784668,-0.27582499384880066,-0.8038250207901001
1771514218818050800,7.99905078125,-0.8322874903678894,-0.6188874840736389,-0.7249000072479248
1771514218838447900,8.01944775390625,-0.857450008392334,-0.8625375032424927,-0.7243499755859375
1771514218858843600,8.03984375,-0.9531499743461609,-0.7217375040054321,-0.7484124898910522
1771514218879240400,8.060240478515626,-1.0115875005722046,-0.34636250138282776,-0.6967124938964844
1771514218899638500,8.080638427734375,-0.9608500003814697,-0.02681249938905239,-0.5277249813079834
1771514218920032800,8.10103271484375,-0.8441125154495239,0.2124374955892563,-0.2628999948501587
1771514218940423400,8.12142333984375,-0.5444999933242798,0.6800749897956848,0.20418749749660492
1771514218960814800,8.14181494140625,-0.3394874930381775,0.957687497138977,0.4002625048160553
1771514218981207800,8.162207763671875,-0.2059749960899353,1.0573749542236328,0.4573250114917755
1771514219001600000,8.18260009765625,-0.12402500212192535,1.0261625051498413,0.41263750195503235
1771514219021991200,8.2029912109375,-0.029975000768899918,0.8702374696731567,0.3012624979019165
1771514219042387200,8.22338720703125,0.1153625026345253,0.5607249736785889,0.2116124927997589
1771514219062786000,8.2437861328125,0.2858625054359436,0.09184999763965607,0.17104999721050262
1771514219083182000,8.26418212890625,0.38513749837875366,-0.45801249146461487,0.08043749630451202
1771514219103576800,8.284576904296875,0.3844499886035919,-0.903374969959259,-0.06806249916553497
1771514219123970000,8.304969970703125,0.32243749499320984,-1.0613625049591064,-0.20418749749660492
1771514219144362200,8.3253623046875,0.2311374992132187,-0.8897625207901001,-0.24172499775886536
1771514219164754400,8.34575439453125,0.15523749589920044,-0.3833499848842621,-0.1667875051498413
1771514219185148200,8.366148193359376,0.10408750176429749,0.3044250011444092,-0.04606249928474426
1771514219205540900,8.386540771484375,0.010174999944865704,0.8784874677658081,-0.057337500154972076
1771514219225933600,8.40693359375,-0.13089999556541443,0.9350000023841858,-0.27403751015663147
1771514219246333000,8.4273330078125,-0.2223374992609024,0.35571250319480896,-0.5484874844551086
1771514219266733300,8.4477333984375,-0.19442500174045563,-0.39352500438690186,-0.7052375078201294
1771514219287130000,8.468130126953126,-0.026262499392032623,-0.8772500157356262,-0.6260374784469604
1771514219307529700,8.48852978515625,0.18466250598430634,-0.9813374876976013,-0.39338749647140503
1771514219327930000,8.50893017578125,0.2961750030517578,-0.6891499757766724,-0.18548749387264252
1771514219348330200,8.529330322265626,0.335224986076355,-0.21051250398159027,-0.030799999833106995
1771514219368730000,8.549730224609375,0.4068624973297119,0.15702499449253082,0.16060000658035278
1771514219389124600,8.57012451171875,0.4961000084877014,0.3770250082015991,0.35516250133514404
1771514219409518300,8.590518310546875,0.5806624889373779,0.5040749907493591,0.5010499954223633
1771514219429913300,8.610913330078125,0.8534625172615051,0.5384500026702881,0.7566624879837036
1771514219450305800,8.631305908203124,1.0509124994277954,0.5000874996185303,0.9054374694824219
1771514219470699500,8.651699462890624,1.1461999416351318,0.34264999628067017,0.898562490940094
1771514219491099000,8.672098876953125,1.029462456703186,0.17077499628067017,0.641712486743927
1771514219511497000,8.6924970703125,0.7101874947547913,0.08786249905824661,0.19676250219345093
1771514219531892000,8.71289208984375,0.5048999786376953,-0.050187498331069946,-0.1414874941110611
1771514219552290000,8.7332900390625,0.5451874732971191,-0.2876499891281128,-0.2535499930381775
1771514219572689400,8.753689453125,0.6308500170707703,-0.4692874848842621,-0.2699125111103058
1771514219593086200,8.774086181640625,0.6665999889373779,-0.5227749943733215,-0.2540999948978424
1771514219613483300,8.794483154296875,0.6058250069618225,-0.37950000166893005,-0.23100000619888306
1771514219633882600,8.814882568359375,0.43505001068115234,-0.14863750338554382,-0.28008750081062317
1771514219654280200,8.8352802734375,0.2656500041484833,-0.09129999577999115,-0.36822500824928284
1771514219674675000,8.855675048828125,0.2517625093460083,-0.22550000250339508,-0.35612499713897705
1771514219695070500,8.876070556640625,0.32394999265670776,-0.23746250569820404,-0.2516250014305115
1771514219715465700,8.8964658203125,0.2532750070095062,0.025987500324845314,-0.19511249661445618
1771514219735861500,8.916861572265624,0.030524998903274536,0.2913624942302704,-0.28517499566078186
1771514219756259600,8.937259521484375,-0.12925000488758087,0.32161250710487366,-0.41635000705718994
1771514219776656400,8.957656494140625,-0.062424998730421066,0.17943750321865082,-0.36134999990463257
1771514219797052700,8.978052734375,0.01718750037252903,0.13557499647140503,-0.1859000027179718
1771514219817450200,8.9984501953125,0.015812499448657036,0.22673749923706055,-0.01979999989271164
1771514219837849000,9.01884912109375,0.12402500212192535,0.3081375062465668,0.24392500519752502
1771514219858248400,9.03924853515625,0.3264249861240387,0.2839374840259552,0.49321249127388
1771514219878646800,9.059646728515625,0.36176249384880066,0.023649999871850014,0.34966251254081726
1771514219899043600,9.080043701171874,0.2387000024318695,-0.42281249165534973,-0.11137499660253525
1771514219919439000,9.100439208984374,0.1896124929189682,-0.6891499757766724,-0.39256250858306885
1771514219939834600,9.120834716796875,0.2287999987602234,-0.4375250041484833,-0.3484250009059906
1771514219960233200,9.141233154296875,0.1979999989271164,-0.2293500006198883,-0.3854124844074249
1771514219980633300,9.16163330078125,0.0611874982714653,-0.1073874980211258,-0.5515124797821045
1771514220001033500,9.182033447265624,-0.1368124932050705,-0.07493750005960464,-0.770550012588501
1771514220021432600,9.2024326171875,-0.2579500079154968,-0.0929500013589859,-0.8940249681472778
1771514220041833200,9.222833251953125,-0.23127499222755432,-0.2287999987602234,-0.94159996509552
1771514220062233900,9.24323388671875,-0.1321374922990799,-0.466949999332428,-0.9549375176429749
1771514220082633700,9.2636337890625,-0.0742499977350235,-0.5524749755859375,-0.8787624835968018
1771514220103036200,9.2840361328125,-0.015399999916553497,-0.40039998292922974,-0.637862503528595
1771514220123439400,9.304439453125,0.089649997651577,-0.12993749976158142,-0.2620750069618225
1771514220143841500,9.324841552734375,0.12718750536441803,0.20748749375343323,0.07246249914169312
1771514220164242200,9.3452421875,-0.003987499978393316,0.5064125061035156,0.11604999750852585
1771514220184640500,9.365640625,-0.21876250207424164,0.6567000150680542,-0.09047500044107437
1771514220205034500,9.386034423828125,-0.33605000376701355,0.657800018787384,-0.23787499964237213
1771514220225428200,9.40642822265625,-0.3326124846935272,0.5383124947547913,-0.28476250171661377
1771514220245824000,9.426823974609375,-0.3548874855041504,0.3396250009536743,-0.39352500438690186
1771514220266217500,9.447217529296875,-0.4113999903202057,0.2656500041484833,-0.514662504196167
1771514220286612200,9.4676123046875,-0.4894999861717224,0.3983374834060669,-0.632224977016449
1771514220307009000,9.488009033203125,-0.8416374921798706,1.0500874519348145,-1.0907875299453735
1771514220327404300,9.508404296875,-0.6377249956130981,1.006637454032898,-1.0601249933242798
1771514220347796200,9.528796142578125,0.23471249639987946,-0.5988125205039978,-0.31075000762939453
1771514220368185900,9.549185791015624,0.5931749939918518,-1.7551875114440918,-0.10216250270605087
1771514220388582700,9.569582763671875,0.6730625033378601,-1.8049625158309937,-0.12443749606609344
1771514220408983800,9.58998388671875,0.9142374992370605,-1.4323375225067139,0.10395000129938126
1771514220429383700,9.6103837890625,0.989175021648407,-0.8243125081062317,0.23251250386238098
1771514220449780500,9.630780517578126,0.9183624982833862,-0.4800125062465668,0.2670249938964844
1771514220470174000,9.651174072265626,0.7702749967575073,-0.505174994468689,0.24062499403953552
1771514220490566100,9.671566162109375,0.4068624973297119,-0.25987499952316284,0.19373749196529388
1771514220510961700,9.691961669921875,0.2670249938964844,0.10202500224113464,0.30524998903274536
1771514220531361300,9.712361328125,0.2046000063419342,0.3067624866962433,0.495137482881546
1771514220551761000,9.732760986328126,0.18177500367164612,0.2750000059604645,0.7121124863624573
1771514220572160500,9.753160400390625,0.03891250118613243,0.06435000151395798,0.7249000072479248
1771514220592563700,9.773563720703125,-0.33082500100135803,-0.03382499888539314,0.4123624861240387
1771514220612968700,9.79396875,-0.7590000033378601,0.20432500541210175,0.030112499371170998
1771514220633371600,9.81437158203125,-0.9149249792098999,0.5615500211715698,-0.04179999977350235
1771514220653770200,9.834770263671874,-0.6806250214576721,0.6708624958992004,0.2689499855041504
1771514220674167000,9.8551669921875,-0.3297249972820282,0.4787749946117401,0.6363499760627747
1771514220694567200,9.875567138671874,-0.3334375023841858,0.20666250586509705,0.5772249698638916
1771514220714967600,9.895967529296875,-0.6516125202178955,0.06888750195503235,0.1293874979019165
1771514220735366100,9.9163662109375,-0.6825500130653381,0.1508374959230423,-0.04619999974966049
1771514220755764700,9.9367646484375,-0.4791874885559082,0.42941248416900635,0.09129999577999115
1771514220776164000,9.9571640625,-0.32120001316070557,0.6584874987602234,0.2410375028848648
1771514220796563700,9.977563720703126,-0.14464999735355377,0.6710000038146973,0.4380750060081482
1771514220816964600,9.997964599609375,0.055412501096725464,0.5399624705314636,0.654087483882904
1771514220837366500,10.018366455078125,0.5003625154495239,0.007562499959021807,0.979687511920929
1771514220857764900,10.038764892578126,1.1070125102996826,-0.7793499827384949,1.3112000226974487
1771514220878162400,10.059162353515624,1.3756874799728394,-1.3304499387741089,1.2570250034332275
1771514220898564000,10.079564208984374,1.1537624597549438,-1.1639374494552612,0.951912522315979
1771514220918969000,10.099968994140625,0.645562469959259,-0.28751251101493835,0.7484124898910522
1771514220939371500,10.12037158203125,0.20363749563694,0.5663625001907349,0.6263124942779541
1771514220959772700,10.140772705078126,-0.04386249929666519,1.0547624826431274,0.49472498893737793
1771514220980176400,10.16117626953125,-0.2433750033378601,0.9979749917984009,0.1321374922990799
1771514221000580600,10.18158056640625,-0.4988499879837036,-0.4045250117778778,-0.9365124702453613
1771514221020983000,10.201983154296874,-0.8394374847412109,-0.880549967288971,-1.5075500011444092
1771514221041382400,10.22238232421875,-0.987387478351593,-0.6951999664306641,-1.521299958229065
1771514221061781200,10.24278125,-0.9219374656677246,-0.10628750175237656,-1.1310750246047974
1771514221082180900,10.263180908203125,-0.7886999845504761,0.49114999175071716,-0.6962999701499939
1771514221102579000,10.283578857421874,-0.6532624959945679,0.7547374963760376,-0.42666250467300415
1771514221122975700,10.303975830078125,-0.6228749752044678,0.6506500244140625,-0.41456249356269836
1771514221143373600,10.32437353515625,-0.5772249698638916,0.18521249294281006,-0.4577375054359436
1771514221163771400,10.344771484375,-0.3507624864578247,-0.41635000705718994,-0.29397499561309814
1771514221184168400,10.36516845703125,-0.07108750194311142,-0.678012490272522,0.03492499887943268
1771514221204565200,10.385565185546875,0.18438750505447388,-0.6018375158309937,0.4017750024795532
1771514221224961000,10.4059609375,0.2727999985218048,-0.4078249931335449,0.5956500172615051
1771514221245357300,10.426357421875,0.1289750039577484,-0.1699499934911728,0.5115000009536743
1771514221265756700,10.446756591796875,-0.010449999943375587,0.06902500241994858,0.35571250319480896
1771514221286156500,10.467156494140625,-0.06104999780654907,0.21422499418258667,0.24997499585151672
1771514221306555000,10.487554931640625,-0.062150001525878906,0.2583625018596649,0.16472500562667847
1771514221326953500,10.507953369140624,-0.11151249706745148,0.26785001158714294,0.0648999959230423
1771514221347352300,10.528352294921875,-0.26468750834465027,0.25616249442100525,-0.11178749799728394
1771514221367748900,10.548748779296876,-0.44714999198913574,0.10257499665021896,-0.36451250314712524
1771514221388144400,10.569144287109374,-0.5721374750137329,-0.2700499892234802,-0.5246999859809875
1771514221408543500,10.58954345703125,-0.5634750127792358,-0.5689749717712402,-0.4736874997615814
1771514221428943000,10.609943115234374,-0.43546250462532043,-0.5102624893188477,-0.2630375027656555
1771514221449342700,10.6303427734375,-0.23567499220371246,-0.19580000638961792,0.015949999913573265
1771514221469743900,10.650743896484375,-0.015949999913573265,0.15895000100135803,0.31927499175071716
1771514221490144800,10.671144775390625,0.14863750338554382,0.4622749984264374,0.5618249773979187
1771514221510547500,10.69154736328125,0.055275000631809235,0.5208500027656555,0.47478750348091125
1771514221530947800,10.71194775390625,-0.1896124929189682,0.31088748574256897,0.21175000071525574
1771514221551344400,10.732344482421874,-0.30140000581741333,0.0017874999903142452,0.0966624990105629
1771514221571741700,10.75274169921875,-0.281187504529953,-0.1629374921321869,0.12430000305175781
1771514221592144000,10.773143798828125,-0.2484624981880188,0.025987500324845314,0.17393749952316284
1771514221612548600,10.793548583984375,-0.2601499855518341,0.2961750030517578,0.20913749933242798
1771514221632948700,10.81394873046875,-0.36176249384880066,0.4292750060558319,0.1471250057220459
1771514221653348000,10.83434814453125,-0.4596624970436096,0.39627498388290405,0.040837500244379044
1771514221673748200,10.854748291015625,-0.5273125171661377,0.3546124994754791,-0.07466249912977219
1771514221694143500,10.8751435546875,-0.6115999817848206,0.4511374831199646,-0.2404875010251999
1771514221714537700,10.895537841796875,-0.6084374785423279,0.507099986076355,-0.357637494802475
1771514221734931200,10.91593115234375,-0.47905001044273376,0.359562486410141,-0.3788124918937683
1771514221755326700,10.93632666015625,-0.27018749713897705,0.09955000132322311,-0.2778874933719635
1771514221775722000,10.956721923828125,-0.07218749821186066,0.020349999889731407,-0.04853750020265579
1771514221796117000,10.977116943359375,0.08470000326633453,0.20652499794960022,0.1975875049829483
1771514221816513800,10.997513671875,0.17861250042915344,0.31088748574256897,0.38940000534057617
1771514221836908300,11.017908203125,0.2708750069141388,0.12155000120401382,0.5142499804496765
1771514221857304000,11.038303955078124,0.2946625053882599,-0.17861250042915344,0.5358374714851379
1771514221877703400,11.058703369140625,0.13199999928474426,-0.42198750376701355,0.36726251244544983
1771514221898104600,11.0791044921875,-0.12787500023841858,-0.6133875250816345,0.06696250289678574
1771514221918508800,11.0995087890625,-0.28008750081062317,-0.7401624917984009,-0.12099999934434891
1771514221938913800,11.119913818359375,-0.15138749778270721,-0.7059249877929688,-0.021449999883770943
1771514221959318300,11.140318359375,0.16087499260902405,-0.39352500438690186,0.2609750032424927
1771514221979722500,11.160722412109376,0.1816374957561493,0.15606249868869781,0.33563750982284546
1771514222000124200,11.181124267578125,-0.1396999955177307,0.590149998664856,0.08071249723434448
1771514222020523500,11.2015234375,-0.454987496137619,0.367125004529953,-0.29809999465942383
1771514222040921300,11.22192138671875,-0.5035250186920166,0.07301250100135803,-0.4101625084877014
1771514222061320400,11.242320556640625,-0.48606249690055847,-0.06187500059604645,-0.41126251220703125
1771514222081716500,11.262716552734375,-0.37716248631477356,-0.1451999992132187,-0.28971248865127563
1771514222102111500,11.283111572265625,-0.18438750505447388,-0.3106124997138977,-0.07975000143051147
1771514222122507800,11.3035078125,0.030387500301003456,-0.5262125134468079,0.16183750331401825
1771514222142900200,11.323900146484375,0.19497500360012054,-0.5810750126838684,0.3639625012874603
1771514222163292700,11.344292724609375,0.19538749754428864,-0.28325000405311584,0.3609375059604645
1771514222183688200,11.364688232421875,0.0411125011742115,0.16183750331401825,0.2391124963760376
1771514222204082400,11.38508251953125,-0.10092499852180481,0.3405874967575073,0.1625249981880188
1771514222224477700,11.405477783203125,-0.2241249978542328,0.3278000056743622,0.06888750195503235
1771514222244876300,11.425876220703126,-0.3057999908924103,0.2578125,-0.02969999983906746
1771514222265276200,11.446276123046875,-0.31652501225471497,0.148499995470047,-0.047575000673532486
1771514222285671700,11.466671630859375,-0.13887499272823334,0.09542500227689743,0.08992499858140945
1771514222306064000,11.48706396484375,0.25987499952316284,0.12581250071525574,0.3877499997615814
1771514222326455600,11.50745556640625,0.6678375005722046,0.22027499973773956,0.6972625255584717
1771514222346847200,11.52784716796875,0.7915874719619751,0.26785001158714294,0.7451124787330627
1771514222367241200,11.5482412109375,0.4507249891757965,0.11508750170469284,0.3639625012874603
1771514222387637000,11.568636962890626,-0.1681624948978424,-0.18012499809265137,-0.28366249799728394
1771514222408031500,11.589031494140626,-0.6928625106811523,-0.4963749945163727,-0.8298124670982361
1771514222428425200,11.60942529296875,-0.8644624948501587,-0.7574874758720398,-0.9755625128746033
1771514222448822300,11.629822265625,-0.6571124792098999,-0.7125250101089478,-0.6727874875068665
1771514222469217800,11.6502177734375,-0.18342499434947968,-0.227974995970726,-0.09542500227689743
1771514222489611300,11.670611328125,0.2287999987602234,0.5064125061035156,0.41593748331069946
1771514222510005500,11.691005615234374,0.19813749194145203,1.1884125471115112,0.49939998984336853
1771514222530398200,11.711398193359376,-0.4133250117301941,1.403462529182434,-0.015124999918043613
1771514222550790700,11.731790771484375,-0.5879499912261963,0.8949875235557556,-0.18700000643730164
1771514222571184400,11.752184326171875,-0.4628250002861023,0.3205125033855438,-0.04207500070333481
1771514222591578600,11.77257861328125,-0.13708749413490295,0.03616249933838844,0.3104749917984009
1771514222611972000,11.79297216796875,0.14602500200271606,0.0448249988257885,0.5314375162124634
1771514222632364800,11.81336474609375,0.31679999828338623,-0.15028749406337738,0.5747500061988831
1771514222652755700,11.833755615234375,0.6987749934196472,-0.5867124795913696,0.7961249947547913
1771514222673148400,11.8541484375,1.3710124492645264,-0.8996624946594238,1.2490500211715698
1771514222693543400,11.87454345703125,1.9287124872207642,-0.7657374739646912,1.6183749437332153
1771514222713936100,11.89493603515625,1.7032124996185303,0.10312499850988388,1.4326125383377075
1771514222734328600,11.91532861328125,0.522362470626831,0.9626374840736389,0.3774375021457672
1771514222754723300,11.935723388671875,-0.8042374849319458,0.608299970626831,-1.2020249366760254
1771514222775118800,11.956118896484375,-1.4726250171661377,-0.5695250034332275,-2.2998249530792236
1771514222795512300,11.97651220703125,-1.338012456893921,-1.4848624467849731,-2.4022624492645264
1771514222815904800,11.99690478515625,-0.7548750042915344,-1.6464250087738037,-1.815137505531311
1771514222836296400,12.01729638671875,-0.17063750326633453,-1.0946375131607056,-1.0518749952316284
1771514222856688400,12.0376884765625,0.13997499644756317,-0.24791249632835388,-0.4914250075817108
1771514222877079300,12.058079345703124,0.0952875018119812,0.41731250286102295,-0.29631251096725464
1771514222897471200,12.07847119140625,-0.10615000128746033,0.6545000076293945,-0.2942500114440918
1771514222917865700,12.09886572265625,-0.2190375030040741,0.6004624962806702,-0.18039999902248383
1771514222938261800,12.11926171875,-0.142037495970726,0.5292375087738037,0.12540000677108765
1771514222958659600,12.13965966796875,-0.019112499430775642,0.5478000044822693,0.4240500032901764
1771514222979058200,12.16005810546875,-0.21408750116825104,0.5983999967575073,0.36217498779296875
1771514222999458000,12.1804580078125,-0.48372501134872437,0.41442498564720154,0.1541374921798706
1771514223019854300,12.200854248046875,0.22247499227523804,-0.25478750467300415,0.8329749703407288
1771514223040246800,12.221246826171875,2.1621875762939453,0.006049999967217445,2.7440874576568604
1771514223060642000,12.24164208984375,1.6933125257492065,1.2285624742507935,2.430312395095825
1771514223081040600,12.26204052734375,-0.4596624970436096,2.090549945831299,0.3258749842643738
1771514223101439200,12.282439208984375,-2.3255374431610107,1.367300033569336,-2.079274892807007
1771514223121836800,12.3028369140625,-2.4193124771118164,-0.6599999666213989,-2.774062395095825
1771514223142235100,12.323235107421874,-1.6736500263214111,-2.0487499237060547,-2.1627373695373535
1771514223162633200,12.34363330078125,-0.8349000215530396,-2.052187442779541,-1.190887451171875
1771514223183030500,12.364030517578126,-0.04413750022649765,-1.1137499809265137,-0.21656249463558197
1771514223203432700,12.3844326171875,0.5988125205039978,0.037950001657009125,0.607200026512146
1771514223223840300,12.40484033203125,0.9101125001907349,0.7016624808311462,1.1012375354766846
1771514223244246000,12.42524609375,0.9028249979019165,0.7017999887466431,1.2413499355316162
1771514223264649200,12.445649169921875,0.7514374852180481,0.49004998803138733,1.1422125101089478
1771514223285054000,12.466053955078126,0.62933748960495,0.2563000023365021,0.9752874970436096
1771514223305460200,12.486460205078124,0.5698000192642212,-0.06517499685287476,0.7643625140190125
1771514223325865500,12.506865478515625,0.5010499954223633,-0.19910000264644623,0.5467000007629395
1771514223346272500,12.5272724609375,0.5447750091552734,0.12278749793767929,0.5741999745368958
1771514223366677500,12.547677490234374,0.7682124972343445,0.5282750129699707,0.8511250019073486
1771514223387077000,12.5680771484375,0.9315624833106995,0.6065124869346619,0.953837513923645
1771514223407480300,12.588480224609375,0.8166124820709229,0.3114374876022339,0.6498249769210815
1771514223427887600,12.6088876953125,0.4977499842643738,-0.038362499326467514,0.13158750534057617
1771514223448292400,12.629292236328125,0.06943749636411667,-0.08002500236034393,-0.40562498569488525
1771514223468692500,12.6496923828125,-0.2457125037908554,0.047849997878074646,-0.767662525177002
1771514223489090300,12.67009033203125,-0.13241249322891235,0.012924999929964542,-0.7356249690055847
1771514223509487400,12.6904873046875,0.2358125001192093,-0.057612501084804535,-0.39063748717308044
1771514223529884200,12.71088427734375,0.5123249888420105,0.04661250114440918,-0.021175000816583633
1771514223550285600,12.73128564453125,0.6235625147819519,0.17476250231266022,0.1909874975681305
1771514223570695000,12.75169482421875,0.5611374974250793,0.032999999821186066,0.12223749607801437
1771514223591101200,12.77210107421875,0.4927999973297119,-0.20295000076293945,0.02736249938607216
1771514223611500800,12.792500732421875,0.48028749227523804,-0.5207124948501587,-0.0976250022649765
1771514223631901700,12.812901611328124,0.39352500438690186,-0.8438374996185303,-0.33646249771118164
1771514223652305400,12.833305419921874,0.2578125,-0.9545249938964844,-0.5483499765396118
1771514223672712400,12.85371240234375,0.3148750066757202,-0.7904874682426453,-0.3796375095844269
1771514223693119200,12.874119140625,0.41786250472068787,-0.35144999623298645,-0.004674999974668026
1771514223713526000,12.894526123046875,0.2217874974012375,0.29122498631477356,0.004812499973922968
1771514223733932000,12.91493212890625,-0.3125374913215637,0.731362521648407,-0.6099500060081482
1771514223754336800,12.935336669921876,-0.7796249985694885,0.6665999889373779,-1.3556125164031982
1771514223774740000,12.955739990234376,-0.7255874872207642,0.10298749804496765,-1.4520000219345093
1771514223795139600,12.9761396484375,-0.21876250207424164,-0.4651624858379364,-0.7925499677658081
1771514223815538200,12.9965380859375,0.41222500801086426,-0.5735124945640564,0.18287499248981476
1771514223835938300,13.016938232421875,0.8916875123977661,-0.2891624867916107,0.9813374876976013
1771514223856338000,13.037337890625,0.9773499965667725,-0.018149999901652336,1.206974983215332
1771514223876737000,13.057737060546875,0.7211874723434448,0.06132499873638153,0.847962498664856
1771514223897137700,13.0781376953125,0.33316248655319214,0.08002500236034393,0.24488750100135803
1771514223917537300,13.098537353515624,-0.0085249999538064,0.0085249999538064,-0.3092375099658966
1771514223937934600,13.1189345703125,-0.17173749208450317,-0.17641249299049377,-0.6759499907493591
1771514223958331000,13.139330810546875,-0.20047499239444733,-0.27293750643730164,-0.8160625100135803
1771514223978726000,13.159725830078125,-0.23539999127388,-0.172837495803833,-0.8449375033378601
1771514223999118600,13.18011865234375,-0.28929999470710754,-0.08236250281333923,-0.8837124705314636
1771514224019511300,13.20051123046875,-0.29727500677108765,-0.21546250581741333,-0.893750011920929
1771514224039904300,13.220904296875,-0.1979999989271164,-0.5377625226974487,-0.725724995136261
1771514224060297000,13.241296875,-0.1321374922990799,-0.5340499877929688,-0.5073750019073486
1771514224080688000,13.261688232421875,-0.04413750022649765,-0.31597501039505005,-0.2564375102519989
1771514224101079600,13.28207958984375,0.08552499860525131,0.10766249895095825,-0.010724999941885471
1771514224121473000,13.30247314453125,0.1597750037908554,0.4676375091075897,0.1289750039577484
1771514224141863000,13.32286279296875,0.1541374921798706,0.5278624892234802,0.12759999930858612
1771514224162256100,13.343256103515625,0.12594999372959137,0.36217498779296875,0.05128749832510948
1771514224182653400,13.3636533203125,0.12856249511241913,0.18314999341964722,-0.011824999935925007
1771514224203048700,13.384048583984375,0.179299995303154,0.05142499879002571,-0.042899999767541885
1771514224223445200,13.4044453125,0.28613749146461487,-0.1522125005722046,-0.03671250119805336
1771514224243840300,13.42484033203125,0.4291374981403351,-0.4137375056743622,0.05156249925494194
1771514224264230700,13.445230712890625,0.5850625038146973,-0.5313000082969666,0.21381250023841858
1771514224284621300,13.465621337890624,0.7202249765396118,-0.42006251215934753,0.3903625011444092
1771514224305013500,13.486013427734376,0.7973625063896179,-0.2616625130176544,0.46406251192092896
1771514224325407700,13.50640771484375,0.7122499942779541,-0.20776249468326569,0.3232625126838684
1771514224345803500,13.526803466796874,0.46392500400543213,-0.21504999697208405,0.03863750025629997
1771514224366197000,13.547197021484376,0.23223750293254852,-0.16128750145435333,-0.2143625020980835
1771514224386589700,13.567589599609375,0.11123749613761902,-0.02956249937415123,-0.31363749504089355
1771514224406982700,13.587982666015625,0.054999999701976776,0.07535000145435333,-0.28929999470710754
1771514224427379000,13.60837890625,0.0193875003606081,0.10944999754428864,-0.2176624983549118
1771514224447778300,13.6287783203125,0.06132499873638153,0.06792499870061874,-0.09033749997615814
1771514224468178700,13.6491787109375,0.17352500557899475,0.045099999755620956,0.1069749966263771
1771514224488577500,13.66957763671875,0.26977500319480896,0.15908749401569366,0.31913748383522034
1771514224508974000,13.68997412109375,0.3115749955177307,0.3526875078678131,0.48221248388290405
1771514224529371600,13.71037158203125,0.28792500495910645,0.4969249963760376,0.495137482881546
1771514224549770800,13.730770751953125,0.13103750348091125,0.4988499879837036,0.27582499384880066
1771514224570172000,13.751171875,-0.15565000474452972,0.37014999985694885,-0.11797499656677246
1771514224590574000,13.771573974609375,-0.6301624774932861,0.05458749830722809,-0.7442874908447266
1771514224610975000,13.79197509765625,-0.7440124750137329,-0.18562500178813934,-0.9937124848365784
1771514224631374800,13.812374755859375,-0.7501999735832214,-0.3123999834060669,-1.0214874744415283
1771514224651770400,13.832770263671875,-0.804099977016449,-0.2656500041484833,-0.9107999801635742
1771514224672160300,13.85316015625,-0.7595499753952026,-0.0635249987244606,-0.6546375155448914
1771514224692549600,13.873549560546875,-0.56045001745224,0.07864999771118164,-0.2727999985218048
1771514224712941800,13.89394189453125,-0.27431249618530273,0.18645000457763672,0.1812250018119812
1771514224733335300,13.914335205078125,0.03396249935030937,0.4545750021934509,0.6653624773025513
1771514224753727500,13.9347275390625,0.19401249289512634,0.8556625247001648,0.9822999835014343
1771514224774119400,13.955119384765625,0.10175000131130219,1.0994499921798706,0.9308750033378601
1771514224794512000,13.975511962890625,-0.12526249885559082,0.9411875009536743,0.5814874768257141
1771514224814907600,13.99590771484375,-0.2899875044822693,0.5801125168800354,0.16032500565052032
1771514224835306200,14.01630615234375,-0.357637494802475,0.1825999915599823,-0.1335124969482422
1771514224855703300,14.036703369140625,-0.3190000057220459,-0.18796250224113464,-0.2564375102519989
1771514224876096300,14.05709619140625,-0.20061250030994415,-0.3723500072956085,-0.2576749920845032
1771514224896486100,14.077486083984375,-0.08992499858140945,-0.36355000734329224,-0.16967499256134033
1771514224916876300,14.097876220703125,-0.02502499893307686,-0.3328875005245209,-0.04097500070929527
1771514224937268200,14.118268310546876,-0.03863750025629997,-0.2815999984741211,0.002749999985098839
1771514224957660000,14.138659912109375,-0.16128750145435333,-0.11371249705553055,-0.11302500218153
1771514224978053000,14.15905322265625,-0.36877501010894775,0.030112499371170998,-0.34264999628067017
1771514224998448400,14.179448486328125,-0.5553625226020813,-0.014162499457597733,-0.5692499876022339
1771514225018841900,14.199841796875,-0.6545000076293945,-0.1597750037908554,-0.6862624883651733
1771514225039233500,14.220233642578124,-0.6447374820709229,-0.19415000081062317,-0.5882250070571899
1771514225059623700,14.240623779296875,-0.5252500176429749,0.0037124999798834324,-0.30002498626708984
1771514225080013600,14.261013671875,-0.35103750228881836,0.39820000529289246,0.05555000156164169
1771514225100403700,14.28140380859375,-0.09184999763965607,0.8615750074386597,0.5942749977111816
1771514225120792300,14.301792236328126,0.06737499684095383,0.7959874868392944,0.8383374810218811
1771514225141181000,14.322180908203125,0.16499999165534973,0.5234624743461609,0.8636375069618225
1771514225161572000,14.342572021484376,0.08689999580383301,0.11508750170469284,0.6353874802589417
1771514225181965000,14.362965087890625,-0.09184999763965607,-0.2630375027656555,0.21449999511241913
1771514225202359000,14.383359130859375,-0.28558748960494995,-0.2891624867916107,-0.20184999704360962
1771514225222753800,14.40375390625,-0.3797749876976013,0.015949999913573265,-0.46639999747276306
1771514225243148800,14.424148681640625,-0.38321250677108765,0.13378749787807465,-0.6301624774932861
1771514225263543800,14.444543701171876,-0.3834874927997589,-0.07768750190734863,-0.7596874833106995
1771514225283936000,14.46493603515625,-0.31652501225471497,-0.37386250495910645,-0.7871875166893005
1771514225304327200,14.4853271484375,-0.1625249981880188,-0.48730000853538513,-0.6204000115394592
1771514225324723000,14.505722900390625,0.06710000336170197,-0.3059374988079071,-0.25712499022483826
1771514225345122000,14.5261220703125,0.320374995470047,0.02681249938905239,0.1284250020980835
1771514225365519600,14.54651953125,0.4582875072956085,0.31418749690055847,0.3488374948501587
1771514225385913900,14.566913818359374,0.46598750352859497,0.43601250648498535,0.35983750224113464
1771514225406304300,14.58730419921875,0.39063748717308044,0.42253750562667847,0.20418749749660492
1771514225426694700,14.607694580078125,0.32848748564720154,0.24557499587535858,-0.048124998807907104
1771514225447089400,14.62808935546875,0.2531374990940094,-0.1970375031232834,-0.2667500078678131
1771514225467486200,14.648486328125,0.20542499423027039,-0.6919000148773193,-0.3679499924182892
1771514225487883000,14.668883056640626,0.2022625058889389,-0.8742250204086304,-0.3398999869823456
1771514225508278300,14.6892783203125,0.2381500005722046,-0.6744375228881836,-0.16788749396800995
1771514225528668400,14.70966845703125,0.32147499918937683,-0.30277499556541443,0.06462500244379044
1771514225549056800,14.730056884765625,0.35983750224113464,0.0672374963760376,0.28338751196861267
1771514225569446400,14.7504462890625,0.3232625126838684,0.4137375056743622,0.4314749836921692
1771514225589839400,14.77083935546875,0.2788499891757965,0.6687999963760376,0.391462504863739
1771514225610232600,14.791232666015626,0.07507500052452087,0.7873250246047974,-0.06283749639987946
1771514225630626600,14.81162646484375,-0.006324999965727329,0.6080250144004822,-0.35557499527931213
1771514225651022800,14.83202294921875,0.00989999994635582,0.23663750290870667,-0.4179999828338623
1771514225671415600,14.85241552734375,0.0789249986410141,-0.11577499657869339,-0.2997500002384186
1771514225691804000,14.872803955078124,0.17916250228881836,-0.23925000429153442,-0.10422500222921371
1771514225712191000,14.89319091796875,0.3018124997615814,-0.210099995136261,0.07150000333786011
1771514225732579000,14.9135791015625,0.31212499737739563,-0.11110000312328339,0.14836250245571136
1771514225752971500,14.933971435546875,0.22220000624656677,0.03904999792575836,0.16307500004768372
1771514225773365000,14.954364990234374,0.18191249668598175,0.15757499635219574,0.21738749742507935
1771514225793756400,14.97475634765625,0.2297624945640564,0.15248750150203705,0.29589998722076416
1771514225814146300,14.995146240234375,0.32339999079704285,0.05582499876618385,0.3301374912261963
1771514225834539000,15.0155390625,0.3297249972820282,-0.02708750031888485,0.2927374839782715
1771514225854933200,15.035933349609374,0.22357499599456787,0.035337500274181366,0.17118750512599945
1771514225875320800,15.05632080078125,0.0826374962925911,0.259737491607666,-0.04881250113248825
1771514225895706400,15.076706298828125,0.04166249930858612,0.2853125035762787,-0.2433750033378601
1771514225916094000,15.097093994140625,0.1667875051498413,-0.011549999937415123,-0.23759999871253967
1771514225936482800,15.11748291015625,0.2653749883174896,-0.19868749380111694,-0.08195000141859055
1771514225956874200,15.137874267578125,0.26221248507499695,-0.010312499478459358,0.02227500081062317
1771514225977268500,15.1582685546875,0.21175000071525574,0.22343750298023224,-0.08524999767541885
1771514225997660000,15.178659912109374,0.12856249511241913,0.11618749797344208,-0.39352500438690186
1771514226018049800,15.1990498046875,0.09102500230073929,-0.2162874937057495,-0.682824969291687
1771514226038441000,15.21944091796875,0.12292499840259552,-0.4342249929904938,-0.7167875170707703
1771514226058833700,15.239833740234374,0.2040500044822693,-0.3531000018119812,-0.49665001034736633
1771514226079227100,15.26022705078125,0.318450003862381,-0.11659999936819077,-0.18562500178813934
1771514226099619800,15.280619873046875,0.3940750062465668,0.04633750021457672,0.05389999970793724
1771514226120013800,15.301013916015625,0.4295499920845032,0.10037499666213989,0.1508374959230423
1771514226140407000,15.321406982421875,0.43656250834465027,0.24818749725818634,0.22632500529289246
1771514226160800300,15.34180029296875,0.4571875035762787,0.42377498745918274,0.26963749527931213
1771514226181194800,15.36219482421875,0.48826250433921814,0.522362470626831,0.23375000059604645
1771514226201588500,15.38258837890625,0.5002250075340271,0.4127750098705292,0.0705375000834465
1771514226221980400,15.40298046875,0.49857500195503235,0.04179999977350235,-0.20569999516010284
1771514226242373400,15.423373291015626,0.49431249499320984,-0.46131250262260437,-0.42996248602867126
1771514226262767000,15.44376708984375,0.5086125135421753,-0.8714749813079834,-0.41208750009536743
1771514226283159300,15.4641591796875,0.5935875177383423,-0.9739124774932861,-0.19030000269412994
1771514226303549700,15.4845498046875,0.6766374707221985,-0.7713750004768372,-0.04936249926686287
1771514226323940600,15.504940673828125,0.6159999966621399,-0.48399999737739563,-0.10917499661445618
1771514226344335000,15.525335205078125,0.5021499991416931,-0.2605625092983246,-0.20528750121593475
1771514226364727600,15.5457275390625,0.46860000491142273,-0.02708750031888485,-0.18383750319480896
1771514226385120300,15.566120361328124,0.4647499918937683,0.2784374952316284,-0.058024998754262924
1771514226405518000,15.58651806640625,0.45801249146461487,0.5543999671936035,0.055137500166893005
1771514226425914000,15.6069140625,0.46131250262260437,0.5648499727249146,0.03217500075697899
1771514226446307600,15.6273076171875,0.4632374942302704,0.33742499351501465,-0.10670000314712524
1771514226466705200,15.647705078125,0.43779999017715454,0.15028749406337738,-0.21876250207424164
1771514226487102500,15.6681025390625,0.43188750743865967,0.13846249878406525,-0.2529999911785126
1771514226507495700,15.68849560546875,0.4632374942302704,0.18754999339580536,-0.24695000052452087
1771514226527887400,15.708887451171876,0.49472498893737793,0.18369999527931213,-0.24461250007152557
1771514226548278800,15.72927880859375,0.45980000495910645,0.2172500044107437,-0.23732499778270721
1771514226568670700,15.749670654296875,0.41690000891685486,0.31308749318122864,-0.2143625020980835
1771514226589064000,15.77006396484375,0.4614500105381012,0.3683624863624573,-0.11550000309944153
1771514226609458200,15.790458251953124,0.6026625037193298,0.3231250047683716,0.04028749838471413
1771514226629851000,15.810850830078126,0.7569375038146973,0.227012500166893,0.1297999918460846
1771514226650241000,15.831240966796875,0.8271999955177307,-0.0016499999910593033,0.09872499853372574
1771514226670632400,15.851632568359374,0.8677625060081482,-0.20295000076293945,-0.01993750035762787
1771514226691027200,15.872027099609374,0.9197375178337097,-0.36506250500679016,-0.15097500383853912
1771514226711417900,15.89241796875,0.9383000135421753,-0.5172749757766724,-0.30291250348091125
1771514226731804700,15.9128046875,0.9098374843597412,-0.5746124982833862,-0.4127750098705292
1771514226752193500,15.933193603515624,0.9013124704360962,-0.5288249850273132,-0.4090625047683716
1771514226772587500,15.95358740234375,1.007462501525879,-0.45746248960494995,-0.22783750295639038
1771514226792983800,15.97398388671875,1.1393250226974487,-0.2718375027179718,0.10353749990463257
1771514226813377000,15.994376953125,1.1805750131607056,0.040424998849630356,0.4544374942779541
1771514226833769700,16.014769775390626,1.1665500402450562,0.26358750462532043,0.6924499869346619
1771514226854162700,16.03516259765625,1.1679250001907349,0.273624986410141,0.7906249761581421
1771514226874553300,16.05555322265625,1.195562481880188,0.16568750143051147,0.8652874827384949
1771514226894942500,16.0759423828125,1.1833250522613525,0.07438749819993973,0.9545249938964844
1771514226915333400,16.09633349609375,1.1387749910354614,-0.05458749830722809,0.9746000170707703
1771514226935725300,16.116725341796876,1.1002750396728516,-0.22632500529289246,0.7767375111579895
1771514226956115200,16.137115234375,0.9946749806404114,-0.28943750262260437,0.38499999046325684
1771514226976504300,16.15750439453125,0.8674874901771545,-0.25244998931884766,-0.014299999922513962
1771514226996897800,16.177897705078124,0.8452125191688538,-0.26496249437332153,-0.3020874857902527
1771514227017291800,16.198291748046874,0.8390250205993652,-0.26413750648498535,-0.45925000309944153
1771514227037682200,16.21868212890625,0.7558375000953674,-0.13255000114440918,-0.5612750053405762
1771514227058071800,16.23907177734375,0.6290624737739563,0.03396249935030937,-0.7623000144958496
1771514227078462200,16.259462158203124,0.5145249962806702,0.048124998807907104,-1.0528374910354614
1771514227098852900,16.279852783203125,0.42473748326301575,-0.11192499846220016,-1.2552374601364136
1771514227119242500,16.300242431640626,0.3801875114440918,-0.25561249256134033,-1.2588125467300415
1771514227139633000,16.3206328125,0.31556248664855957,-0.1872749924659729,-1.1213124990463257
1771514227160024000,16.341024169921877,0.17215000092983246,-0.009074999950826168,-0.9692375063896179
1771514227180414700,16.361414794921874,-0.07535000145435333,0.1685750037431717,-0.8179875016212463
1771514227200802600,16.381802490234374,-0.1845249980688095,0.26001250743865967,-0.6821374893188477
1771514227221188600,16.402188720703126,-0.2143625020980835,0.4179999828338623,-0.4254249930381775
1771514227241576700,16.42257666015625,-0.17765000462532043,0.7569375038146973,0.0193875003606081
1771514227261966600,16.442966552734376,-0.1704999953508377,1.356850028038025,0.5685625076293945
1771514227282359800,16.46335986328125,-0.19112500548362732,1.9458999633789062,0.9527375102043152
1771514227302756900,16.4837568359375,-0.09019999951124191,1.9579999446868896,0.8893499970436096
1771514227323154700,16.50415478515625,0.11371249705553055,1.374862551689148,0.49197500944137573
1771514227343550500,16.524550537109373,0.34017500281333923,0.6664624810218811,0.10793749988079071
1771514227363943000,16.54494287109375,0.5638874769210815,0.13983750343322754,-0.09473749995231628
1771514227384335600,16.565335693359376,0.8002499938011169,-0.1498750001192093,-0.04839999973773956
1771514227404730400,16.58573046875,1.0506374835968018,-0.1886499971151352,0.27059999108314514
1771514227425127200,16.606127197265625,1.262524962425232,-0.03189999982714653,0.7346624732017517
1771514227445524200,16.626524169921876,1.355062484741211,0.18754999339580536,1.0975250005722046
1771514227465915600,16.64691552734375,1.3822875022888184,0.34595000743865967,0.21848750114440918
1771514227486310100,16.66731005859375,1.3486000299453735,0.43188750743865967,0.28943750262260437
1771514227506709200,16.687709228515626,1.2923624515533447,0.3125374913215637,0.17874999344348907
1771514227527111200,16.708111083984374,1.4445749521255493,-0.13337500393390656,-0.25712499022483826
1771514227547513600,16.728513671875,1.6785999536514282,-0.6375874876976013,-0.5732374787330627
1771514227567914200,16.748914306640625,1.7708624601364136,-0.8406749963760376,-0.634149968624115
1771514227588317200,16.769317138671877,1.750100016593933,-0.8278874754905701,-0.4830375015735626
1771514227608720100,16.78972021484375,1.7569749355316162,-0.7955750226974487,-0.2227499932050705
1771514227629122000,16.8101220703125,1.7454249858856201,-0.7859500050544739,-0.14973749220371246
1771514227649523000,16.83052294921875,1.646975040435791,-0.7764624953269958,-0.3398999869823456
1771514227669919700,16.850919677734375,1.4700125455856323,-0.6528499722480774,-0.5058624744415283
1771514227690315300,16.871315185546877,0.9785875082015991,-0.13791249692440033,-0.4395875036716461
1771514227710711300,16.891711181640623,0.6176499724388123,0.25107499957084656,-0.3361875116825104
1771514227731106000,16.91210595703125,0.3636874854564667,0.47671249508857727,-0.2576749920845032
1771514227751499800,16.932499755859375,0.2653749883174896,0.5202999711036682,-0.16898749768733978
1771514227771891200,16.95289111328125,0.2451625019311905,0.4974749982357025,-0.09006249904632568
1771514227792280600,16.973280517578125,0.09693749994039536,0.5812125205993652,-0.1428624987602234
1771514227812671000,16.9936708984375,-0.10532499849796295,0.6949250102043152,-0.31088748574256897
1771514227833062100,17.014062255859375,-0.0672374963760376,0.5904250144958496,-0.44302499294281006
1771514227853453800,17.034453857421877,0.1251250058412552,0.32284998893737793,-0.4025999903678894
1771514227873847000,17.054846923828126,0.24323749542236328,0.15262499451637268,-0.12815000116825104
1771514227894241800,17.07524169921875,0.18782499432563782,0.2223374992609024,0.37207499146461487
1771514227914639400,17.095639404296875,0.038362499326467514,0.42570000886917114,0.963325023651123
1771514227935038000,17.116037841796874,-0.011824999935925007,0.5565999746322632,1.3736250400543213
1771514227955433000,17.136432861328124,-0.016637500375509262,0.5682874917984009,1.363450050354004
1771514227975830800,17.156830810546875,-0.0644875019788742,0.505174994468689,0.8677625060081482
1771514227996227800,17.177227783203126,-0.07328750193119049,0.358599990606308,0.10078749805688858
1771514228016620500,17.19762060546875,0.052937500178813934,0.08799999952316284,-0.5255249738693237
1771514228037014300,17.21801416015625,0.29631251096725464,-0.18617500364780426,-0.7436000108718872
1771514228057406200,17.23840625,0.3807374835014343,-0.20542499423027039,-0.5897374749183655
1771514228077795800,17.2587958984375,0.3133625090122223,-0.0034374999813735485,-0.25533750653266907
1771514228098185700,17.279185791015625,0.23086249828338623,0.1691250056028366,-0.07672499865293503
1771514228118579200,17.2995791015625,0.25478750467300415,0.11329999566078186,-0.306487500667572
1771514228138975200,17.319975341796876,0.4562250077724457,-0.18741250038146973,-0.6886000037193298
1771514228159369000,17.340368896484375,0.7204999923706055,-0.490325003862381,-0.8064374923706055
1771514228179761400,17.360761474609376,0.8512625098228455,-0.5970249772071838,-0.5772249698638916
1771514228200156000,17.381156005859374,0.7803124785423279,-0.490325003862381,-0.19827499985694885
1771514228220551000,17.401551025390624,0.5400999784469604,-0.254925012588501,0.16472500562667847
1771514228240947500,17.421947509765626,0.4834499955177307,-0.20116250216960907,0.19882500171661377
1771514228261346300,17.44234619140625,0.5394124984741211,-0.26840001344680786,0.1266375035047531
1771514228281739800,17.46273974609375,0.757349967956543,-0.48510000109672546,0.16279999911785126
1771514228302132000,17.483132080078125,0.9372000098228455,-0.6363499760627747,0.46722498536109924
1771514228322530300,17.5035302734375,0.6007375121116638,-0.31831249594688416,0.3975124955177307
1771514228342930700,17.5239306640625,-0.02502499893307686,0.1751749962568283,-0.5339124798774719
1771514228363328300,17.544328369140626,-0.1350249946117401,0.14272500574588776,-1.4464999437332153
1771514228383722000,17.564721923828124,0.2909500002861023,-0.32491248846054077,-1.3897124528884888
1771514228404118000,17.585117919921874,0.7612000107765198,-0.7855374813079834,-0.1555124968290329
1771514228424517000,17.60551708984375,0.7213249802589417,-0.8568999767303467,1.8633999824523926
1771514228444912400,17.625912353515623,-0.1909874975681305,-0.142037495970726,3.0566248893737793
1771514228465306400,17.646306396484373,-1.5874375104904175,1.0614999532699585,2.11365008354187
1771514228485702400,17.666702392578124,-2.0327999591827393,1.2472624778747559,-0.37097498774528503
1771514228506099200,17.68709912109375,-0.7269625067710876,-0.08208750188350677,-2.3163249492645264
1771514228526493700,17.70749365234375,0.8453499674797058,-1.399612545967102,-2.553925037384033
1771514228546886400,17.727886474609374,1.217424988746643,-1.6174124479293823,-1.73208749294281
1771514228567281000,17.748281005859376,0.550000011920929,-0.9532874822616577,-0.7833374738693237
1771514228587677700,17.768677734375,-0.23498749732971191,-0.18232500553131104,-0.2582249939441681
1771514228608077600,17.78907763671875,-0.7068874835968018,0.2616625130176544,-0.2630375027656555
1771514228628474400,17.809474365234376,-0.8600624799728394,0.38499999046325684,-0.5149375200271606
1771514228648863000,17.829863037109376,-0.7690374851226807,0.3592875003814697,-0.631262481212616
1771514228669250600,17.85025048828125,-0.7404375076293945,0.4526500105857849,-0.5293750166893005
1771514228689643500,17.8706435546875,-0.8755999803543091,0.7075750231742859,-0.41401249170303345
1771514228710038800,17.891038818359377,-0.9807875156402588,0.8214250206947327,-0.4809750020503998
1771514228730432000,17.911431884765626,-0.2639999985694885,0.09858749806880951,-0.42611250281333923
1771514228750825200,17.9318251953125,0.8652874827384949,-0.8907250165939331,0.30057498812675476
1771514228771221200,17.95222119140625,1.3953499794006348,-1.4565374851226807,1.4209250211715698
1771514228791620400,17.972620361328126,1.1844249963760376,-1.4385249614715576,2.719062566757202
1771514228812019200,17.993019287109377,0.19002500176429749,-0.6681125164031982,3.048650026321411
1771514228832415500,18.01341552734375,-1.3514875173568726,-0.9505375027656555,1.7256250381469727
1771514228852810000,18.03381005859375,-1.7199875116348267,-0.9597499966621399,0.3152875006198883
1771514228873202000,18.054201904296875,-0.8020374774932861,-0.5852000117301941,-1.629925012588501
1771514228893591300,18.07459130859375,0.1621125042438507,-1.148537516593933,-1.9769749641418457
1771514228913980400,18.09498046875,0.40328750014305115,-1.0829499959945679,-1.1195249557495117
1771514228934372600,18.11537255859375,-0.2326499968767166,-0.21793749928474426,-0.12264999747276306
1771514228954768100,18.13576806640625,-0.8142749667167664,0.4624125063419342,0.02694999985396862
1771514228975162600,18.15616259765625,-0.688462495803833,0.2997500002384186,-0.34814998507499695
1771514228995554000,18.176553955078123,-0.3587374985218048,0.0010999999940395355,-0.5912500023841858
1771514229015944700,18.19694482421875,-0.4797374904155731,0.25519999861717224,-0.6705874800682068
1771514229036334800,18.2173349609375,-0.9240000247955322,0.8483750224113464,-0.6711375117301941
1771514229056723700,18.2377236328125,-1.136299967765808,1.0617749691009521,-0.5812125205993652
1771514229077111000,18.258111083984375,-0.9746000170707703,0.7688999772071838,-0.3489750027656555
1771514229097495300,18.278495361328126,-0.545324981212616,0.284074991941452,0.19318750500679016
1771514229117875500,18.29887548828125,0.20721249282360077,-0.26551249623298645,1.2623875141143799
1771514229138256600,18.319256591796876,0.6958875060081482,-0.43271249532699585,2.4128499031066895
1771514229158639000,18.33963916015625,0.219587504863739,0.18466250598430634,2.6739625930786133
1771514229179018500,18.3600185546875,-0.4965125024318695,0.815512478351593,1.9126249551773071
1771514229199400400,18.380400390625,-0.5455999970436096,0.6495500206947327,0.6632999777793884
1771514229219785200,18.40078515625,0.05362499877810478,-0.13846249878406525,-0.4624125063419342
1771514229240167000,18.4211669921875,0.7187125086784363,-0.7851250171661377,-0.8610249757766724
1771514229260547600,18.441547607421874,0.8485124707221985,-0.6575250029563904,-0.07150000333786011
1771514229280930600,18.4619306640625,0.5073750019073486,-0.14643749594688416,0.6841999888420105
1771514229301316000,18.482316162109374,0.14959999918937683,0.3170749843120575,1.024512529373169
1771514229321703000,18.502702880859374,-0.07493750005960464,0.5224999785423279,0.7775624990463257
1771514229342092000,18.523092041015627,0.014162499457597733,0.25891250371932983,0.10944999754428864
1771514229362480000,18.543480224609375,0.4526500105857849,-0.34168750047683716,-0.4395875036716461
1771514229382870800,18.563870849609376,0.9882124662399292,-0.9296374917030334,-0.44398748874664307
1771514229403263200,18.58426318359375,1.3264625072479248,-1.213575005531311,0.05156249925494194
1771514229423655200,18.6046552734375,1.4176249504089355,-1.2439625263214111,0.6000499725341797
1771514229444045000,18.625045166015624,1.2677500247955322,-1.0660375356674194,0.6908000111579895
1771514229464435500,18.645435546875,0.8757374882698059,-0.6711375117301941,0.36726251244544983
1771514229484830500,18.66583056640625,0.2942500114440918,-0.08744999766349792,-0.055275000631809235
1771514229505229300,18.686229248046875,-0.3287625014781952,0.5350124835968018,-0.4353249967098236
1771514229525627600,18.706627685546874,-0.5220875144004822,0.7284749746322632,-0.6687999963760376
1771514229546021000,18.727021240234375,-0.05816249921917915,0.31968748569488525,-0.6843374967575073
1771514229566413800,18.747413818359377,0.5926250219345093,-0.2330625057220459,-0.3609375059604645
1771514229586809300,18.767809326171875,0.7878749966621399,-0.35749998688697815,0.16664999723434448
1771514229607204400,18.788204345703125,0.3900874853134155,0.05898749828338623,0.4923875033855438
1771514229627596000,18.808595947265626,-0.06393750011920929,0.49004998803138733,0.3022249937057495
1771514229647986000,18.82898583984375,0.0042624999769032,0.42666250467300415,-0.34966251254081726
1771514229668375300,18.849375244140624,0.5363875031471252,-0.047712501138448715,-0.8599249720573425
1771514229688766200,18.86976611328125,1.0613625049591064,-0.49101248383522034,-0.7665625214576721
1771514229709159400,18.890159423828123,1.2275999784469604,-0.6589000225067139,-0.16458749771118164
1771514229729553200,18.91055322265625,1.1357499361038208,-0.6392375230789185,0.5970249772071838
1771514229749943800,18.93094384765625,1.0879000425338745,-0.6958875060081482,1.1712249517440796
1771514229770336000,18.9513359375,0.8665249943733215,-0.5698000192642212,1.1596750020980835
1771514229790731500,18.9717314453125,0.2503874897956848,0.07768750190734863,0.37248748540878296
1771514229811127000,18.992126953125,-0.36272498965263367,0.783887505531311,-0.5438125133514404
1771514229831524000,19.012524169921875,-0.5530250072479248,1.0847375392913818,-1.3343000411987305
1771514229851923500,19.03292333984375,-0.008799999952316284,0.6606875061988831,-1.4623124599456787
1771514229872322000,19.053322021484377,0.6619250178337097,0.03355000168085098,-0.908050000667572
1771514229892719000,19.073718994140624,0.8062999844551086,-0.26083749532699585,-0.04675000160932541
1771514229913114000,19.094114013671874,0.41208750009536743,-0.09569999575614929,0.6819999814033508
1771514229933507000,19.114507080078123,-0.2626250088214874,0.39998748898506165,0.8416374921798706
1771514229953901300,19.1349013671875,-0.7145875096321106,0.8017625212669373,0.3147374987602234
1771514229974298600,19.155298583984376,-0.5830000042915344,0.7023500204086304,-0.5321249961853027
1771514229994697500,19.175697509765627,0.057887498289346695,0.1256749927997589,-1.0998624563217163
1771514230015098400,19.196098388671874,0.6132500171661377,-0.45333749055862427,-1.0623250007629395
1771514230035500300,19.216500244140626,0.5897374749183655,-0.5982624888420105,-0.5692499876022339
1771514230055901000,19.23690087890625,0.060087498277425766,-0.3227125108242035,0.07108750194311142
1771514230076298200,19.25729833984375,-0.6171000003814697,0.09886249899864197,0.5494499802589417
1771514230096695600,19.277695556640627,-0.9817500114440918,0.3493874967098236,0.6862624883651733
1771514230117090000,19.298090087890625,-0.9975624680519104,0.3540624976158142,0.46131250262260437
1771514230137482200,19.318482177734374,-0.9293624758720398,0.2890250086784363,0.04647500067949295
1771514230157877500,19.33887744140625,-0.9537000060081482,0.305525004863739,-0.303600013256073
1771514230178275600,19.359275634765623,-1.0154374837875366,0.33742499351501465,-0.4736874997615814
1771514230198673400,19.37967333984375,-1.0232750177383423,0.26743748784065247,-0.5024250149726868
1771514230219067000,19.40006689453125,-0.9505375027656555,0.09597499668598175,-0.3811500072479248
1771514230239456500,19.42045654296875,-0.8771125078201294,-0.07590000331401825,-0.09652499854564667
1771514230259845000,19.44084521484375,-0.7469000220298767,-0.23058749735355377,0.5711749792098999
1771514230280234500,19.461234375,-0.6703125238418579,-0.22714999318122864,1.0232750177383423
1771514230300626400,19.48162646484375,-0.5902875065803528,-0.20514999330043793,1.3491499423980713
1771514230321020200,19.502020263671874,-0.4816625118255615,-0.1938749998807907,1.5090625286102295
1771514230341414400,19.522414306640623,-0.4544374942779541,-0.14698749780654907,1.3028124570846558
1771514230361807600,19.5428076171875,-0.515625,-0.09487500041723251,0.7019374966621399
1771514230382203100,19.563203125,-0.5167250037193298,-0.15125000476837158,-0.031212499365210533
1771514230402600200,19.58360009765625,-0.41552498936653137,-0.29163751006126404,-0.5942749977111816
1771514230422994400,19.603994384765624,-0.3151499927043915,-0.3606624901294708,-0.9009000062942505
1771514230443385300,19.62438525390625,-0.2722499966621399,-0.36726251244544983,-0.9700624942779541
1771514230463774000,19.64477392578125,-0.23292499780654907,-0.39476248621940613,-0.8390250205993652
1771514230484161000,19.6651611328125,-0.2063875049352646,-0.39586248993873596,-0.5504124760627747
1771514230504549600,19.685549560546875,-0.27431249618530273,-0.2630375027656555,-0.23980000615119934
1771514230524942600,19.705942626953124,-0.42611250281333923,-0.07452499866485596,-0.055275000631809235
1771514230545340200,19.726340087890627,-0.5249750018119812,0.04331250116229057,-0.023512499406933784
1771514230565735200,19.746735107421873,-0.5274500250816345,0.0611874982714653,-0.1405249983072281
1771514230586122800,19.767122802734374,-0.4232249855995178,-0.04647500067949295,-0.3068999946117401
1771514230606509600,19.787509521484374,-0.32862499356269836,-0.16513749957084656,-0.3854124844074249
1771514230626899000,19.80789892578125,-0.37097498774528503,-0.14822499454021454,-0.29672500491142273
1771514230647289900,19.828289794921876,-0.4824874997138977,-0.042762499302625656,-0.0424874983727932
1771514230667680500,19.848680419921877,-0.4372499883174896,-0.052662499248981476,0.30951249599456787
1771514230688069000,19.869069091796874,-0.28847500681877136,-0.16073749959468842,0.643637478351593
1771514230708455400,19.889455322265626,-0.20047499239444733,-0.20391249656677246,0.8842625021934509
1771514230728842500,19.909842529296874,-0.28613749146461487,-0.07067500054836273,1.0019625425338745
1771514230749232400,19.930232421875,-0.49293750524520874,0.1985500007867813,1.0280874967575073
1771514230769624600,19.95062451171875,-0.7627124786376953,0.5553625226020813,0.770550012588501
1771514230790020900,19.971020751953127,-0.7973625063896179,0.5885000228881836,0.5670499801635742
1771514230810419500,19.99141943359375,-0.6705874800682068,0.3825249969959259,-0.13901250064373016
1771514230830815200,20.011815185546876,-0.5218124985694885,0.09624999761581421,-0.5938624739646912
1771514230851213300,20.03221337890625,-0.45938751101493835,-0.057475000619888306,-0.7265499830245972
1771514230871613000,20.052613037109374,-0.4529249966144562,-0.06572499871253967,-0.6184750199317932
1771514230892010500,20.073010498046877,-0.46722498536109924,0.0037124999798834324,-0.42858749628067017
1771514230912406300,20.09340625,-0.47574999928474426,0.054999999701976776,-0.29961249232292175
1771514230932802600,20.113802490234374,-0.47286251187324524,0.013612499460577965,-0.2591874897480011
1771514230953197300,20.134197265625,-0.44123750925064087,-0.04235000163316727,-0.20776249468326569
1771514230973588000,20.154587890625,-0.4263874888420105,0.060224998742341995,-0.09790000319480896
1771514230993979000,20.174978759765626,-0.48537498712539673,0.24323749542236328,0.04702499881386757
1771514231014374100,20.1953740234375,-0.5769500136375427,0.38046249747276306,0.1297999918460846
1771514231034772500,20.2157724609375,-0.6392375230789185,0.4006749987602234,0.11453749984502792
1771514231055170000,20.236170166015626,-0.5841000080108643,0.2806375026702881,0.04647500067949295
1771514231075569000,20.25656884765625,-0.5157625079154968,0.12718750536441803,-0.07507500052452087
1771514231095964200,20.276964111328127,-0.4670875072479248,0.05004999786615372,-0.24199999868869781
1771514231116358100,20.297358154296877,-0.4295499920845032,0.028462499380111694,-0.3474625051021576
1771514231136756000,20.317755859375,-0.3656125068664551,-0.018287500366568565,-0.346637487411499
1771514231157154300,20.338154296875,-0.3115749955177307,-0.042899999767541885,-0.2670249938964844
1771514231177549300,20.35854931640625,-0.24158750474452972,-0.023375000804662704,-0.09006249904632568
1771514231197940700,20.378940673828126,-0.12251249700784683,-0.0010999999940395355,0.14313749969005585
1771514231218334200,20.399334228515624,-0.0008249999955296516,0.0015124999918043613,0.30140000581741333
1771514231238731300,20.419731201171874,0.05678749829530716,-0.05362499877810478,0.2461249977350235
1771514231259127000,20.440126953125,0.09487500041723251,-0.20061250030994415,0.015399999916553497
1771514231279520500,20.4605205078125,0.16651250422000885,-0.3741374909877777,-0.170912504196167
1771514231299912400,20.480912353515624,0.24227499961853027,-0.41552498936653137,-0.08992499858140945
1771514231320306400,20.501306396484374,0.20116250216960907,-0.2909500002861023,0.036024998873472214
1771514231340703000,20.521702880859376,0.2162874937057495,-0.16637499630451202,0.14794999361038208
1771514231361098000,20.542097900390626,0.21188749372959137,-0.0424874983727932,0.2633124887943268
1771514231381491700,20.56249169921875,0.1812250018119812,0.07823749631643295,0.32615000009536743
1771514231401885000,20.582885009765626,0.1373624950647354,0.1751749962568283,0.3713875114917755
1771514231422279700,20.60327978515625,0.09404999762773514,0.256850004196167,0.4493499994277954
1771514231442676000,20.623676025390626,0.11123749613761902,0.3003000020980835,0.5120499730110168
1771514231463070500,20.644070556640624,0.20666250586509705,0.2326499968767166,0.49912500381469727
1771514231483464200,20.664464111328126,0.24021250009536743,0.1755875051021576,0.3465000092983246
1771514231503858700,20.684858642578124,0.1658249944448471,0.22247499227523804,0.040424998849630356
1771514231524253700,20.705253662109374,0.11824999749660492,0.22536249458789825,-0.3392125070095062
1771514231544649700,20.725649658203125,0.2069374918937683,0.05609999969601631,-0.5476624965667725
1771514231565045000,20.746044921875,0.34759998321533203,-0.08332499861717224,-0.4512749910354614
1771514231585439200,20.766439208984377,0.405349999666214,-0.04166249930858612,-0.2817375063896179
1771514231605838300,20.78683837890625,0.38279998302459717,-0.016637500375509262,-0.3348124921321869
1771514231626240500,20.807240478515624,0.37290000915527344,-0.16692499816417694,-0.5682874917984009
1771514231646637800,20.827637939453126,0.3965499997138977,-0.283112496137619,-0.6318125128746033
1771514231667034400,20.848034423828125,0.3866499960422516,-0.14877499639987946,-0.3694624900817871
1771514231687430700,20.8684306640625,0.30758750438690186,0.15399999916553497,0.03932499885559082
1771514231707828500,20.888828369140626,0.2619374990463257,0.31130000948905945,0.24695000052452087
1771514231728228400,20.909228271484373,0.35089999437332153,0.12072499841451645,0.17668749392032623
1771514231748630300,20.92963037109375,0.5513749718666077,-0.25575000047683716,0.12264999747276306
1771514231769031000,20.950031005859376,0.7041375041007996,-0.42625001072883606,0.2849000096321106
1771514231789425400,20.97042529296875,0.5609999895095825,-0.14588749408721924,0.4349125027656555
1771514231809819600,20.990819580078124,0.21216249465942383,0.36588749289512634,0.30662500858306885
1771514231830214100,21.011214111328126,0.12952500581741333,0.32284998893737793,-0.2923249900341034
1771514231850612500,21.031612548828125,0.32120001316070557,-0.10119999945163727,-0.5574250221252441
1771514231871011000,21.052010986328124,0.39489999413490295,-0.23897500336170197,-0.5086125135421753
1771514231891407400,21.072407470703126,0.22783750295639038,0.040424998849630356,-0.2686749994754791
1771514231911805200,21.09280517578125,0.012374999932944775,0.4127750098705292,-0.0030249999836087227
1771514231932206000,21.1132060546875,-0.018149999901652336,0.5160375237464905,0.2232999950647354
1771514231952610300,21.1336103515625,0.10944999754428864,0.3686375021934509,0.4501749873161316
1771514231973012200,21.15401220703125,0.20281249284744263,0.23553749918937683,0.6228749752044678
1771514231993406200,21.17440625,0.13983750343322754,0.26510000228881836,0.6252124905586243
1771514232013800200,21.19480029296875,-0.02722499892115593,0.3759250044822693,0.4796000123023987
1771514232034200300,21.215200439453124,-0.16926249861717224,0.43642500042915344,0.27527499198913574
1771514232054602500,21.2356025390625,-0.20253749191761017,0.3961375057697296,0.05335000157356262
1771514232075001900,21.256001953125,-0.15908749401569366,0.26028749346733093,-0.21518750488758087
1771514232095398100,21.276398193359373,-0.12099999934434891,0.06146249920129776,-0.4460499882698059
1771514232115792000,21.2967919921875,-0.06764999777078629,-0.07535000145435333,-0.3863750100135803
1771514232136187000,21.317186767578125,-0.025849999859929085,-0.021175000816583633,-0.042762499302625656
1771514232156587500,21.33758740234375,-0.02708750031888485,0.10147500038146973,0.3123999834060669
1771514232176987400,21.3579873046875,0.011274999938905239,0.09363749623298645,0.5077875256538391
1771514232197380900,21.378380859375,-0.004674999974668026,0.06379999965429306,0.5018749833106995
1771514232217772000,21.39877197265625,-0.09171249717473984,0.06077500060200691,0.29122498631477356
1771514232238166300,21.419166259765625,-0.015949999913573265,-0.09418749809265137,0.07163749635219574
1771514232258562300,21.439562255859375,0.18067499995231628,-0.2886124849319458,0.04661250114440918
1771514232278955500,21.45995556640625,0.16651250422000885,-0.24777500331401825,0.12416250258684158
1771514232299348500,21.480348388671874,-0.04455000162124634,-0.05926249921321869,0.10422500222921371
1771514232319739600,21.50073974609375,-0.0042624999769032,-0.2433750033378601,-0.2162874937057495
1771514232340130600,21.521130615234377,0.10477499663829803,-0.3955875039100647,-0.3273875117301941
1771514232360523500,21.5415234375,0.24131250381469727,-0.5062749981880188,-0.20762500166893005
1771514232380918300,21.561918212890625,0.07644999772310257,-0.19373749196529388,0.21972499787807465
1771514232401313000,21.58231298828125,-0.17022499442100525,0.148499995470047,0.4388999938964844
1771514232421706200,21.602706298828124,-0.3250499963760376,0.30717501044273376,0.34498751163482666
1771514232442102800,21.623102783203127,-0.19456249475479126,0.0859375,0.03932499885559082
1771514232462503200,21.643503173828126,0.09611249715089798,-0.26633748412132263,-0.15895000100135803
1771514232482904600,21.663904541015626,0.21285000443458557,-0.3975124955177307,-0.22316250205039978
1771514232503302100,21.68430224609375,0.09102500230073929,-0.3246375024318695,-0.35749998688697815
1771514232523695000,21.704695068359374,-0.030387500301003456,-0.2690874934196472,-0.5578374862670898
1771514232544087000,21.725087158203124,0.02736249938607216,-0.31693750619888306,-0.5520625114440918
1771514232564482300,21.745482421875,0.22866250574588776,-0.35557499527931213,-0.13048750162124634
1771514232584881200,21.765881103515625,0.3619000017642975,-0.22398750483989716,0.5747500061988831
1771514232605278500,21.786278564453124,0.3068999946117401,0.043449997901916504,1.2152249813079834
1771514232625676300,21.80667626953125,0.01251249946653843,0.3746874928474426,1.2115124464035034
1771514232646074000,21.82707421875,-0.23732499778270721,0.42666250467300415,0.3760625123977661
1771514232666472400,21.847472412109376,-0.1434125006198883,0.0719124972820282,-0.6538124680519104
1771514232686873300,21.867873291015623,0.08071249723434448,-0.29218751192092896,-1.3084499835968018
1771514232707275000,21.88827490234375,0.15138749778270721,-0.36134999990463257,-1.469599962234497
1771514232727678500,21.908678466796875,0.11522500216960907,-0.24777500331401825,-1.2790249586105347
1771514232748079400,21.929079345703126,0.17063750326633453,-0.2638624906539917,-0.9142374992370605
1771514232768478700,21.949478759765626,0.35942500829696655,-0.3932499885559082,-0.33687499165534973
1771514232788877600,21.969877685546876,0.5383124947547913,-0.4133250117301941,0.5142499804496765
1771514232809275600,21.990275634765624,0.5073750019073486,-0.1956624984741211,1.4086874723434448
1771514232829675300,22.01067529296875,0.24365000426769257,0.15702499449253082,1.8338375091552734
1771514232850073300,22.0310732421875,-0.2110625058412552,0.5326749682426453,1.4169374704360962
1771514232870475800,22.051475830078125,-0.5814874768257141,0.6291999816894531,-0.13859999179840088
1771514232890880300,22.07188037109375,-0.3554374873638153,0.3345375061035156,-0.8905875086784363
1771514232911281200,22.09228125,-0.07713750004768372,0.004124999977648258,-1.4117125272750854
1771514232931683000,22.11268310546875,0.17503750324249268,-0.35887500643730164,-1.7268625497817993
1771514232952085000,22.1330849609375,0.4582875072956085,-0.641712486743927,-1.515524983406067
1771514232972483600,22.153483642578124,0.6579374670982361,-0.7396125197410583,-0.8714749813079834
1771514232992879600,22.173879638671874,0.7195374965667725,-0.6689375042915344,-0.038362499326467514
1771514233013278500,22.194278564453125,0.7347999811172485,-0.5587999820709229,0.7357624769210815
1771514233033679400,22.214679443359376,0.5304750204086304,-0.2868250012397766,1.099037528038025
1771514233054079000,22.235078857421875,0.07809999585151672,0.18424999713897705,0.9017249941825867
1771514233074476500,22.2554765625,-0.27293750643730164,0.495137482881546,0.2778874933719635
1771514233094872600,22.27587255859375,-0.3123999834060669,0.4390375018119812,-0.43834999203681946
1771514233115268600,22.2962685546875,-0.06751249730587006,0.15826250612735748,-0.7892500162124634
1771514233135664400,22.316664306640625,0.14135000109672546,-0.035750001668930054,-0.7336999773979187
1771514233156058600,22.33705859375,0.14657500386238098,-0.07535000145435333,-0.5559124946594238
1771514233176452000,22.3574521484375,0.10078749805688858,-0.12430000305175781,-0.46777498722076416
1771514233196845300,22.37784521484375,0.14093749225139618,-0.2241249978542328,-0.33467498421669006
1771514233217238000,22.398238037109376,0.23856249451637268,-0.2572624981403351,0.05115000158548355
1771514233237632800,22.4186328125,0.22192500531673431,-0.1223749965429306,0.6216375231742859
1771514233258027500,22.439027587890624,-0.03135000169277191,0.20624999701976776,1.0715374946594238
1771514233278423300,22.45942333984375,-0.33041250705718994,0.5209875106811523,0.9935749769210815
1771514233298820400,22.4798203125,-0.5752999782562256,0.7060624957084656,0.38733750581741333
1771514233319217400,22.500217529296876,-0.6858500242233276,0.7356249690055847,-0.1993750035762787
1771514233339615500,22.520615478515627,-0.46158748865127563,0.5026999711990356,-0.37193748354911804
1771514233360012300,22.54101220703125,-0.08923749625682831,0.17118750512599945,-0.25189998745918274
1771514233380405800,22.56140576171875,0.14135000109672546,-0.05678749829530716,-0.029424998909235
1771514233400801000,22.581801025390625,0.07067500054836273,-0.04963750019669533,-0.04729999974370003
1771514233421199000,22.60219921875,0.07122500240802765,-0.11976250261068344,-0.07218749821186066
1771514233441595600,22.622595703125,0.1839749962091446,-0.22893749177455902,0.06462500244379044
1771514233461990400,22.642990478515625,0.1428624987602234,-0.14506250619888306,0.32284998893737793
1771514233482385200,22.66338525390625,-0.07493750005960464,0.0999625027179718,0.4646124839782715
1771514233502778600,22.683778564453124,-0.3102000057697296,0.25052499771118164,0.2755500078201294
1771514233523171600,22.704171630859374,-0.522225022315979,0.23223750293254852,-0.2447499930858612
1771514233543565300,22.7245654296875,-0.5608624815940857,0.04468749836087227,-0.7723374962806702
1771514233563958300,22.744958251953125,-0.30621248483657837,-0.2531374990940094,-0.8138625025749207
1771514233584350000,22.765349853515627,0.1023000031709671,-0.48730000853538513,-0.15111249685287476
1771514233604740600,22.78574072265625,0.5202999711036682,-0.5812125205993652,1.0650750398635864
1771514233625132300,22.80613232421875,0.5533000230789185,-0.3856875002384186,1.9963624477386475
1771514233645525800,22.82652587890625,-0.15482500195503235,0.3067624866962433,1.798087477684021
1771514233665919000,22.8469189453125,-0.7807250022888184,0.7929624915122986,0.869825005531311
1771514233686311000,22.867310791015626,-0.7000125050544739,0.4503124952316284,-0.38183748722076416
1771514233706700300,22.8877001953125,-0.3144625127315521,-0.2681249976158142,-1.704587459564209
1771514233727091000,22.908091064453124,0.0057749999687075615,-0.7900750041007996,-2.507312536239624
1771514233747483100,22.928483154296874,0.11976250261068344,-0.9124500155448914,-2.541137456893921
1771514233767873300,22.948873291015627,-0.02474999986588955,-0.7317749857902527,-2.173875093460083
1771514233788259600,22.969259521484375,-0.33508750796318054,-0.4606249928474426,-1.7517499923706055
1771514233808644600,22.98964453125,-0.5560500025749207,-0.4025999903678894,-1.241075038909912
1771514233829032400,23.010032470703123,0.010724999941885471,-0.9992125034332275,-0.2611125111579895
1771514233849428700,23.0304287109375,1.2282874584197998,-2.0468249320983887,1.5745124816894531
1771514233869825300,23.0508251953125,1.1360249519348145,-1.9083625078201294,3.13747501373291
1771514233890215700,23.071215576171873,-3.0098750591278076,0.11096250265836716,1.9586875438690186
1771514233910607600,23.091607666015626,-4.5262250900268555,2.063187599182129,0.26455000042915344
1771514233931003600,23.112003662109377,-3.5033624172210693,1.883887529373169,-1.1215875148773193
1771514233951401700,23.132401611328124,-1.784749984741211,0.28792500495910645,-1.7606874704360962
1771514233971798800,23.152798828125,-0.5389999747276306,-0.6924499869346619,-1.441825032234192
1771514233992192500,23.173192626953124,-0.1354375034570694,-0.5809375047683716,-0.5370749831199646
1771514234012584700,23.193584716796874,-0.29218751192092896,0.1634874939918518,0.44948750734329224
1771514234032977700,23.213977783203124,-0.4422000050544739,0.7653250098228455,1.1378124952316284
1771514234053369000,23.234369140625,-0.25052499771118164,0.7240750193595886,1.4143249988555908
1771514234073762800,23.2547626953125,0.19882500171661377,0.2120250016450882,1.387512445449829
1771514234094161200,23.2751611328125,0.5638874769210815,-0.2670249938964844,1.196387529373169
1771514234114558200,23.29555810546875,0.5717250108718872,-0.4823499917984009,0.6840624809265137
1771514234134950100,23.3159501953125,0.30387499928474426,-0.5491750240325928,-0.24089999496936798
1771514234155339800,23.33633984375,0.23787499964237213,-0.8234875202178955,-1.1629749536514282
1771514234175732500,23.356732421875,0.6945124864578247,-1.3605624437332153,-1.4526875019073486
1771514234196128500,23.37712841796875,1.3129874467849731,-1.7345625162124634,-0.9670374989509583
1771514234216525300,23.397525390625,1.5107125043869019,-1.5680500268936157,-0.13048750162124634
1771514234236920800,23.4179208984375,1.1302499771118164,-0.9448999762535095,0.4433000087738037
1771514234257313800,23.438313720703125,0.6947875022888184,-0.4563624858856201,0.5651249885559082
1771514234277705500,23.45870556640625,0.5266249775886536,-0.2849000096321106,0.5193374752998352
1771514234298096400,23.479096435546875,0.42061248421669006,-0.13901250064373016,0.46254998445510864
1771514234318489900,23.49948974609375,0.19373749196529388,0.09019999951124191,0.32958748936653137
1771514234338882600,23.519882568359375,-0.08951249718666077,0.3669874966144562,0.1387374997138977
1771514234359273500,23.5402734375,-0.3044250011444092,0.5676000118255615,-0.03341250121593475
1771514234379664600,23.56066455078125,-0.32725000381469727,0.5658124685287476,-0.10587500035762787
1771514234400055600,23.5810556640625,-0.08689999580383301,0.3242250084877014,-0.02502499893307686
1771514234420450600,23.601450439453124,0.35144999623298645,-0.14863750338554382,0.11811249703168869
1771514234440848100,23.62184814453125,0.44398748874664307,-0.3414124846458435,0
1771514234461244200,23.642244140625,0.41552498936653137,-0.4563624858856201,-0.24392500519752502
1771514234481641000,23.662640869140624,0.3624500036239624,-0.4848249852657318,-0.4171749949455261
1771514234502040300,23.683040283203123,0.36588749289512634,-0.4548499882221222,-0.3067624866962433
1771514234522435800,23.703435791015625,0.32065001130104065,-0.31790000200271606,0.010724999941885471
1771514234542827000,23.723826904296875,0.09955000132322311,-0.007699999958276749,0.2862749993801117
1771514234563218000,23.744218017578124,-0.27252501249313354,0.3081375062465668,0.17572499811649323
1771514234583609000,23.764609130859377,-0.5838249921798706,0.4749250113964081,-0.19277499616146088
1771514234604004600,23.785004638671875,-0.7184374928474426,0.533637523651123,-0.4413749873638153
1771514234624398600,23.805398681640625,-0.88714998960495,0.6582124829292297,-0.6718249917030334
1771514234644788700,23.825788818359374,-0.9289500117301941,0.6687999963760376,-0.9857375025749207
1771514234665182000,23.846181884765624,-0.5770875215530396,0.3031874895095825,-1.178512454032898
1771514234685580000,23.866580078125,-0.028737500309944153,-0.1929125040769577,-1.0143375396728516
1771514234705979600,23.886979736328126,0.30841249227523804,-0.40933749079704285,-0.508062481880188
1771514234726375400,23.90737548828125,0.2938374876976013,-0.21504999697208405,0.21587499976158142
1771514234746768000,23.927767822265626,0.08579999953508377,0.1812250018119812,0.9409124851226807
1771514234767163000,23.948162841796876,-0.16335000097751617,0.44769999384880066,1.141800045967102
1771514234787560400,23.968560546875,-0.318450003862381,0.3676750063896179,0.6076124906539917
1771514234807959300,23.988959228515625,-0.346637487411499,0.06063750013709068,-0.19249999523162842
1771514234828358400,24.0093583984375,-0.2536875009536743,-0.20184999704360962,-0.6467999815940857
1771514234848752600,24.029752685546875,-0.09735000133514404,-0.2722499966621399,-0.5157625079154968
1771514234869144800,24.050144775390624,-0.0471624992787838,-0.05967500060796738,-0.011137500405311584
1771514234889537300,24.070537353515626,-0.46626248955726624,0.6976749897003174,0.6219124794006348
1771514234909931500,24.090931640625,-0.6620625257492065,0.9063999652862549,0.6143500208854675
1771514234930328800,24.111328857421874,-0.7358999848365784,0.7253124713897705,-0.07919999957084656
1771514234950725600,24.1317255859375,-0.345674991607666,0.05458749830722809,-0.7528125047683716
1771514234971116500,24.152116455078126,0.21683749556541443,-0.5293750166893005,-0.9383000135421753
1771514234991506400,24.17250634765625,0.7268249988555908,-0.8496124744415283,-0.7108749747276306
1771514235011899000,24.19289892578125,0.9145125150680542,-0.7646374702453613,-0.20996250212192535
1771514235032291000,24.213291015625,0.8338000178337097,-0.46447500586509705,0.32023748755455017
1771514235052681200,24.23368115234375,0.681725025177002,-0.24406249821186066,0.6329125165939331
1771514235073069000,24.254069091796875,0.6784250140190125,-0.28847500681877136,0.6957499980926514
1771514235093454300,24.274454345703123,0.768762469291687,-0.47066250443458557,0.6307125091552734
1771514235113839900,24.29483984375,0.6535375118255615,-0.455949991941452,0.5244249701499939
1771514235134225400,24.315225341796875,0.3339875042438507,-0.20295000076293945,0.45182499289512634
1771514235154610200,24.335610107421875,0.14781250059604645,0.015262499451637268,0.533637523651123
1771514235174994400,24.355994384765626,0.14547500014305115,0.10023749619722366,0.6883249878883362
1771514235195380500,24.37638037109375,0.28517499566078186,0.014437500387430191,0.7178875207901001
1771514235215770600,24.3967705078125,0.521399974822998,-0.1839749962091446,0.6115999817848206
1771514235236161800,24.417161865234377,0.6777374744415283,-0.31679999828338623,0.5468375086784363
1771514235256550000,24.4375498046875,0.6619250178337097,-0.3011249899864197,0.6014249920845032
1771514235276936000,24.45793603515625,0.42377498745918274,-0.1120624989271164,0.5971624851226807
1771514235297324300,24.47832421875,-0.014024999924004078,0.10298749804496765,0.04427500069141388
1771514235317714200,24.498714111328123,-0.21834999322891235,0.033275000751018524,-0.8571749925613403
1771514235338102000,24.51910205078125,-0.02969999983906746,-0.256850004196167,-1.3695000410079956
1771514235358492700,24.53949267578125,0.11426249891519547,-0.3801875114440918,-1.3585000038146973
1771514235378885600,24.5598857421875,-0.07246249914169312,-0.1942874938249588,-0.9403625130653381
1771514235399278600,24.580278564453124,-0.25244998931884766,0.06806249916553497,-0.17737500369548798
1771514235419668700,24.600668701171877,-0.16788749396800995,0.15303750336170197,0.563337504863739
1771514235440056600,24.621056640625,0.028324998915195465,0.04853750020265579,0.8354499936103821
1771514235460443400,24.641443359375,0.28462499380111694,-0.11783749610185623,0.9059875011444092
1771514235480834600,24.66183447265625,0.16871249675750732,0.03396249935030937,0.9748749732971191
1771514235501230000,24.68222998046875,-0.15344999730587006,0.37014999985694885,0.9822999835014343
1771514235521626000,24.702626220703124,-0.632224977016449,0.8141375184059143,0.7202249765396118
1771514235542020000,24.72302001953125,-1.1768624782562256,1.1111375093460083,-0.24076250195503235
1771514235562410800,24.74341064453125,-1.3054250478744507,0.910937488079071,-1.4521374702453613
1771514235582801200,24.76380126953125,-0.6623374819755554,0.22866250574588776,-1.951949954032898
1771514235603195000,24.78419482421875,0.05857500061392784,-0.3525499999523163,-1.62909996509552
1771514235623590400,24.80459033203125,0.2895750105381012,-0.49252501130104065,-0.9084625244140625
1771514235643983600,24.824983642578125,0.2149125039577484,-0.32573750615119934,-0.08084999769926071
1771514235664375800,24.845375732421875,0.11082500219345093,-0.1023000031709671,0.6743000149726868
1771514235684768000,24.86576806640625,0.16431249678134918,-0.04895000159740448,1.1526625156402588
1771514235705158700,24.88615869140625,0.47148749232292175,-0.29163751006126404,1.2307624816894531
1771514235725551000,24.906551025390623,0.8570374846458435,-0.681725025177002,0.9957749843597412
1771514235745945000,24.926945068359377,0.9139624834060669,-0.8113874793052673,0.6422625184059143
1771514235766337000,24.9473369140625,0.47519999742507935,-0.5300624966621399,0.15839999914169312
1771514235786729500,24.9677294921875,0.003987499978393316,-0.20473749935626984,-0.47382500767707825
1771514235807125800,24.988125732421874,-0.12072499841451645,-0.15592500567436218,-1.1886874437332153
1771514235827520800,25.008520751953125,-0.07479999959468842,-0.2186249941587448,-1.6531624794006348
1771514235847912200,25.028912109375,-0.1050499975681305,-0.1424500048160553,-1.5632375478744507
1771514235868304600,25.0493046875,-0.19965000450611115,0.022549999877810478,-1.0513249635696411
1771514235888696800,25.06969677734375,-0.24227499961853027,0.12264999747276306,-0.41442498564720154
1771514235909087500,25.09008740234375,-0.2391124963760376,0.1223749965429306,0.17311249673366547
1771514235929478400,25.110478515625,-0.18328750133514404,0.058024998754262924,0.6136624813079834
1771514235949869300,25.130869384765624,-0.1247124969959259,-0.017737500369548798,0.8102874755859375
1771514235970261000,25.151260986328126,-0.3529624938964844,0.1036750003695488,0.6422625184059143
1771514235990655200,25.1716552734375,-0.6433625221252441,0.2582249939441681,0.2250874936580658
1771514236011048400,25.19204833984375,-0.8200500011444092,0.3040125072002411,-0.3689124882221222
1771514236031439400,25.212439453125,-0.8219749927520752,0.16458749771118164,-0.9890375137329102
1771514236051833000,25.2328330078125,-0.6184750199317932,-0.08855000138282776,-1.2112375497817993
1771514236072223500,25.253223388671874,-0.45938751101493835,-0.20817500352859497,-0.9689624905586243
1771514236092612600,25.273612548828126,-0.45842498540878296,-0.10518749803304672,-0.4320249855518341
1771514236113004000,25.294004150390624,-0.45237499475479126,0.06421250104904175,0.1905750036239624
1771514236133393400,25.314393310546876,-0.30387499928474426,0.08236250281333923,0.6710000038146973
1771514236153781200,25.33478125,-0.06627500057220459,-0.047987498342990875,0.8864625096321106
1771514236174171100,25.355171142578126,-0.05926249921321869,-0.06228749826550484,0.7869125008583069
1771514236194564400,25.375564453125,-0.4862000048160553,0.210099995136261,0.390500009059906
1771514236214957800,25.395957763671873,-1.0462374687194824,0.5710374712944031,-0.13901250064373016
1771514236235348500,25.416348388671874,-1.1886874437332153,0.5924875140190125,-0.5765374898910522
1771514236255739000,25.43673876953125,-0.8387500047683716,0.20143750309944153,-0.8162000179290771
1771514236276129800,25.4571298828125,-0.4349125027656555,-0.17311249673366547,-0.7783874869346619
1771514236296521000,25.47752099609375,-0.2690874934196472,-0.21642500162124634,-0.4620000123977661
