time,seconds_elapsed,z,y,x
1771514678048457700,0.146457763671875,1.5193190574645996,-0.10802099853754044,-0.7089859843254089
1771514678253882000,0.351882080078125,0.038286998867988586,0.04208499938249588,-1.8138389587402344
1771514678264087600,0.362087646484375,0.5017200112342834,-0.05825600028038025,-2.418159008026123
1771514678284292600,0.382292724609375,0.5532820224761963,-0.06872300058603287,-2.211242914199829
1771514678294601700,0.392601806640625,0.4701499938964844,-0.09814199805259705,-1.9025959968566895
1771514678315117600,0.41311767578125,0.4383170008659363,-0.12343300133943558,-1.4277939796447754
1771514678335529700,0.43352978515625,0.5070499777793884,-0.158952996134758,-1.1485899686813354
1771514678355944000,0.45394384765625,0.5703979730606079,-0.164902001619339,-1.0637500286102295
1771514678376360000,0.47435986328125,0.6675209999084473,-0.07557699829339981,-1.1078490018844604
1771514678396773600,0.494773681640625,1.0250860452651978,-0.010699000209569931,-0.9323509931564331
1771514678417188400,0.515188232421875,1.1149200201034546,-0.02913299947977066,-0.7796739935874939
1771514678437605600,0.535605712890625,0.9132279753684998,-0.03405899927020073,-0.6105470061302185
1771514678458024200,0.556024169921875,0.6581540107727051,0.03658600151538849,-0.547370970249176
1771514678478443300,0.576443359375,0.5022209882736206,0.1657799929380417,-0.6962310075759888
1771514678498862000,0.596862060546875,0.45369699597358704,0.2583490014076233,-0.4749540090560913
1771514678519284000,0.617283935546875,0.3188770115375519,0.2454030066728592,-0.2944130003452301
1771514678539707400,0.637707275390625,0.3111410140991211,0.22653500735759735,-0.314644992351532
1771514678560125000,0.658125,0.2772040069103241,0.19953300058841705,-0.39385199546813965
1771514678580543000,0.67854296875,0.23875300586223602,0.1415800005197525,-0.38804298639297485
1771514678600959700,0.698959716796875,0.4200589954853058,0.11488199979066849,-0.4590590000152588
1771514678621375500,0.71937548828125,0.47458499670028687,0.07407800108194351,-0.31815698742866516
1771514678641792800,0.739792724609375,0.48850101232528687,0.06044600158929825,-0.10438700020313263
1771514678662211800,0.7602119140625,0.7361389994621277,-0.12568899989128113,0.022647999227046967
1771514678682631700,0.780631591796875,0.7545850276947021,-0.08564399927854538,-0.10828600078821182
1771514678703044600,0.801044677734375,0.639274001121521,0.07932200282812119,-0.26437199115753174
1771514678723454700,0.821454833984375,0.27843400835990906,0.138824000954628,-0.22809399664402008
1771514678743866400,0.841866455078125,0.056919001042842865,0.1529970020055771,-0.204257994890213
1771514678764278800,0.86227880859375,-0.04341999813914299,0.09072300046682358,-0.045882999897003174
1771514678784694300,0.8826943359375,0.06848400086164474,0.04801499843597412,-0.060986001044511795
1771514678805110800,0.90311083984375,0.21042700111865997,-0.06573999673128128,0.12028300017118454
1771514678825527300,0.92352734375,0.4468199908733368,-0.1574079990386963,0.2273160070180893
1771514678845939700,0.943939697265625,0.8904799818992615,-0.17468799650669098,0.2679080069065094
1771514678866343700,0.96434375,1.045935034751892,-0.22373299300670624,0.18644000589847565
1771514678886748400,0.98474853515625,0.9679520130157471,-0.24444399774074554,0.14164799451828003
1771514678907156200,1.00515625,0.7120159864425659,-0.16633999347686768,0.1521109938621521
1771514678927567600,1.025567626953125,0.5758069753646851,-0.2182690054178238,0.23621700704097748
1771514678947980800,1.045980712890625,0.7270849943161011,-0.21349099278450012,0.35664400458335876
1771514678968392700,1.066392822265625,0.9409689903259277,-0.29105299711227417,0.4108540117740631
1771514678988809200,1.086809326171875,0.9614049792289734,-0.21866700053215027,0.1578029990196228
1771514679009229000,1.10722900390625,0.8917620182037354,-0.1574389934539795,-0.08859899640083313
1771514679029645000,1.12764501953125,0.7006130218505859,-0.23822499811649323,0.06859800219535828
1771514679050056400,1.148056396484375,0.45279499888420105,-0.21646900475025177,0.29501599073410034
1771514679070467800,1.1684677734375,0.377469003200531,-0.15154600143432617,0.2967439889907837
1771514679090879200,1.188879150390625,0.4327940046787262,-0.030527999624609947,-0.04481000080704689
1771514679111290600,1.20929052734375,0.5114730000495911,0.03956500068306923,-0.1864120066165924
1771514679131705900,1.229705810546875,0.5116040110588074,-0.008476999588310719,-0.07687100023031235
1771514679152121300,1.250121337890625,0.4762209951877594,-0.07388699799776077,0.1045989990234375
1771514679172537900,1.270537841796875,0.3873549997806549,-0.05174100026488304,-0.0048050000332295895
1771514679192955400,1.290955322265625,0.4039610028266907,0.06419199705123901,-0.11680400371551514
1771514679213370400,1.311370361328125,0.36222800612449646,0.045983001589775085,-0.16299299895763397
1771514679233781200,1.33178125,0.32513999938964844,-0.0147280003875494,-0.08115799725055695
1771514679254192400,1.3521923828125,0.4796760082244873,-0.031160999089479446,-0.12742599844932556
1771514679274606300,1.3726064453125,0.6703029870986938,-0.02165599912405014,-0.07660099864006042
1771514679295019300,1.393019287109375,0.8011670112609863,-0.07715799659490585,0.045889001339673996
1771514679315430400,1.413430419921875,0.6758260130882263,-0.04588799923658371,-0.031741999089717865
1771514679335841300,1.43384130859375,0.6115300059318542,-0.14643900096416473,0.23437699675559998
1771514679356254500,1.45425439453125,0.6953809857368469,-0.1980919986963272,0.10082200169563293
1771514679376668200,1.474668212890625,0.7938870191574097,-0.04866199940443039,-0.03482000157237053
1771514679397080800,1.495080810546875,0.9241330027580261,0.05714400112628937,0.0075090001337230206
1771514679417494000,1.515493896484375,0.9339060187339783,0.04264700040221214,-0.013113000430166721
1771514679437906000,1.535906005859375,0.9366660118103027,0.05714400112628937,-0.13740700483322144
1771514679458317600,1.556317626953125,0.8108940124511719,0.12694400548934937,-0.3219969868659973
1771514679478735600,1.576735595703125,0.6946629881858826,0.21680200099945068,-0.305990993976593
1771514679499155700,1.59715576171875,0.5190680027008057,0.21985499560832977,-0.2925960123538971
1771514679519572200,1.617572265625,0.4455220103263855,0.3691500127315521,-0.3113740086555481
1771514679539984600,1.637984619140625,0.32835298776626587,0.2976750135421753,-0.3066520094871521
1771514679560395300,1.658395263671875,0.37368300557136536,0.2598020136356354,-0.24195800721645355
1771514679580808700,1.67880859375,0.3400909900665283,0.19735899567604065,-0.1442759931087494
1771514679601222100,1.69922216796875,0.14172600209712982,0.24634799361228943,-0.13609899580478668
1771514679621633500,1.719633544921875,0.02297700010240078,0.24894100427627563,-0.23303300142288208
1771514679642044200,1.740044189453125,0.024532999843358994,0.10189200192689896,-0.2071080058813095
1771514679662454500,1.76045458984375,0.3315500020980835,-0.0009619999909773469,-0.0572500005364418
1771514679682867700,1.78086767578125,0.5607089996337891,0.019014999270439148,0.15340200066566467
1771514679703281400,1.801281494140625,0.6401569843292236,0.15206100046634674,0.2373560070991516
1771514679723691500,1.82169140625,0.49932101368904114,0.2585659921169281,0.3674260079860687
1771514679744099600,1.842099609375,0.6673979759216309,0.3397350013256073,0.11155500262975693
1771514679764508700,1.8625087890625,0.7479230165481567,0.31612300872802734,-0.012149999849498272
1771514679784920600,1.882920654296875,0.7610030174255371,0.3223460018634796,0.10849999636411667
1771514679805333800,1.903333740234375,0.72918701171875,0.252344012260437,0.03856299817562103
1771514679825744400,1.923744384765625,0.353767991065979,0.27267301082611084,0.016037000343203545
1771514679846152400,1.94415234375,-0.1657399982213974,0.5511620044708252,-0.1192220002412796
1771514679866560800,1.964560791015625,0.3909339904785156,0.6188160181045532,0.12419400364160538
1771514679886969900,1.984969970703125,1.5889129638671875,0.3558390140533447,-0.37524399161338806
1771514679907380000,2.0053798828125,2.5147030353546143,0.21651500463485718,-0.23778599500656128
1771514679927792600,2.025792724609375,2.132952928543091,-0.12853600084781647,0.42552000284194946
1771514679948200000,2.046199951171875,0.12575200200080872,0.01094099972397089,-0.08416900038719177
1771514679968605200,2.066605224609375,-0.3345170021057129,0.7844250202178955,-0.20660799741744995
1771514679989013000,2.087012939453125,-0.11083599925041199,0.5544250011444092,-0.41310301423072815
1771514680009421800,2.107421875,1.2811520099639893,0.16830800473690033,-0.08525499701499939
1771514680029831700,2.127831787109375,1.166774034500122,-0.2638320028781891,-0.27058300375938416
1771514680050242800,2.148242919921875,-0.28462499380111694,0.4703870117664337,-0.7378770112991333
1771514680070654000,2.168654052734375,-0.41629400849342346,1.0830780267715454,-0.29035699367523193
1771514680091064000,2.18906396484375,-0.32816600799560547,0.9440100193023682,0.14162300527095795
1771514680111475200,2.20947509765625,-0.6244580149650574,0.9958480000495911,0.2815389931201935
1771514680131883000,2.229883056640625,-0.9492499828338623,0.8931570053100586,0.5485910177230835
1771514680152285000,2.250284912109375,-1.414363980293274,0.9876490235328674,0.4070340096950531
1771514680172687600,2.2706875,-0.8020240068435669,0.30819201469421387,-0.32586801052093506
1771514680193092900,2.2910927734375,0.7009810209274292,0.2415419965982437,-0.5963749885559082
1771514680213498400,2.311498291015625,1.1044470071792603,-0.31121599674224854,-0.9985169768333435
1771514680233905700,2.33190576171875,1.7731000185012817,-0.3580000102519989,-1.2848609685897827
1771514680254314000,2.35231396484375,1.445054054260254,-0.5044440031051636,-0.8353610038757324
1771514680274718700,2.37271875,0.5462960004806519,-0.3900119960308075,-0.06839200109243393
1771514680295125800,2.393125732421875,-0.028063999488949776,-0.08414299786090851,0.07362300157546997
1771514680315536600,2.41353662109375,0.16692200303077698,0.01861399970948696,-0.28566598892211914
1771514680335949800,2.43394970703125,0.7316399812698364,-0.20201699435710907,-0.15654100477695465
1771514680356360400,2.4543603515625,0.4704900085926056,-0.2687540054321289,0.14475199580192566
1771514680376765700,2.474765625,0.6245930194854736,-0.31923699378967285,-0.23123399913311005
1771514680397170200,2.495170166015625,1.0105060338974,-0.07660400122404099,-0.8609179854393005
1771514680417572900,2.51557275390625,0.3509660065174103,-0.015483999624848366,-0.39355599880218506
1771514680437974000,2.53597412109375,-0.44903799891471863,0.1887650042772293,0.22234700620174408
1771514680458377000,2.556376953125,0.32144299149513245,-0.1416500061750412,0.14064699411392212
1771514680478784800,2.57678466796875,1.7385629415512085,-0.6489660143852234,0.12918399274349213
1771514680499192300,2.5971923828125,1.8726860284805298,-0.18288099765777588,0.10964400321245193
1771514680519602700,2.617602783203125,1.0773379802703857,-0.17934100329875946,0.138032004237175
1771514680540018700,2.638018798828125,0.43757200241088867,-0.1787009984254837,0.04467900097370148
1771514680560430300,2.658430419921875,0.303523987531662,0.11083599925041199,-0.46791699528694153
1771514680580843500,2.678843505859375,0.16359399259090424,0.3342539966106415,-0.6641309857368469
1771514680601260800,2.6992607421875,0.06099399924278259,0.27041101455688477,-0.2663840055465698
1771514680621675800,2.71967578125,0.3548310101032257,0.1036909967660904,0.08402799814939499
1771514680642091800,2.740091796875,0.9400680065155029,0.20944300293922424,0.32356899976730347
1771514680662506200,2.76050634765625,1.173740029335022,0.2681550085544586,0.16124899685382843
1771514680682919200,2.780919189453125,0.8401550054550171,0.1779859960079193,-0.02222299948334694
1771514680703328000,2.801327880859375,0.9288830161094666,0.2077140063047409,-0.17080900073051453
1771514680723737300,2.8217373046875,1.2000689506530762,0.24000300467014313,-0.20225900411605835
1771514680744148700,2.842148681640625,1.028965950012207,0.19606199860572815,0.05369599908590317
1771514680764558300,2.862558349609375,0.6019279956817627,0.3233650028705597,0.24813300371170044
1771514680784972800,2.882972900390625,0.575838029384613,0.3223539888858795,-0.09689699858427048
1771514680805390300,2.903390380859375,0.45605599880218506,0.1336590051651001,0.22023099660873413
1771514680825805300,2.923805419921875,0.4393799901008606,-0.1271049976348877,0.5989459753036499
1771514680846220500,2.944220458984375,0.46422600746154785,-0.2992269992828369,0.3317619860172272
1771514680866633500,2.964633544921875,0.5623970031738281,-0.3760809898376465,0.24721500277519226
1771514680887045600,2.985045654296875,0.4301519989967346,-0.5023329854011536,0.2836329936981201
1771514680907461600,3.005461669921875,0.5220749974250793,-0.6933950185775757,0.1438470035791397
1771514680927878400,3.02587841796875,0.7434229850769043,-0.8022840023040771,-0.1399500072002411
1771514680948294400,3.04629443359375,0.9487109780311584,-0.7944809794425964,-0.6260210275650024
1771514680968708000,3.0667080078125,0.8199229836463928,-0.7246130108833313,-0.6834359765052795
1771514680989120000,3.0871201171875,0.3224320113658905,-0.6473270058631897,-0.859158992767334
1771514681009532000,3.107531982421875,0.2108130007982254,-0.48622000217437744,-0.7024480104446411
1771514681029943000,3.127943115234375,0.5315889716148376,-0.39353299140930176,-0.3502100110054016
1771514681050355000,3.14835498046875,0.6282870173454285,-0.3127169907093048,-0.26553499698638916
1771514681070768400,3.168768310546875,0.094029001891613,-0.2799830138683319,-0.16759100556373596
1771514681091180300,3.18918017578125,-0.2130489945411682,-0.22296899557113647,-0.20875300467014313
1771514681111590000,3.20958984375,0.34451600909233093,-0.11875999718904495,-0.2469400018453598
1771514681132000500,3.23000048828125,1.0018140077590942,-0.21055099368095398,-0.29422101378440857
1771514681152409900,3.250409912109375,1.1900229454040527,-0.2700830101966858,-0.25144898891448975
1771514681172815600,3.270815673828125,0.8233619928359985,-0.18978799879550934,-0.13586199283599854
1771514681193220600,3.291220703125,0.4555380046367645,-0.008320000022649765,-0.20855699479579926
1771514681213626000,3.311626220703125,0.4726719856262207,0.20459899306297302,-0.3257170021533966
1771514681234033700,3.33203369140625,0.5498120188713074,0.3237980008125305,-0.1945510059595108
1771514681254444800,3.35244482421875,0.47429901361465454,0.250216007232666,-0.2514289915561676
1771514681274858500,3.3728583984375,0.17561699450016022,0.4028039872646332,-0.19415099918842316
1771514681295269400,3.393269287109375,0.7371029853820801,0.6114969849586487,-0.2882409989833832
1771514681315681500,3.413681640625,0.6445320248603821,0.5497499704360962,-0.18028900027275085
1771514681336094500,3.434094482421875,0.8080390095710754,0.5316010117530823,-0.36705100536346436
1771514681356504300,3.45450439453125,1.6219359636306763,0.7027950286865234,-0.0627250000834465
1771514681376910600,3.47491064453125,1.6426379680633545,0.876911997795105,-0.8925219774246216
1771514681397317400,3.4953173828125,1.8652470111846924,0.8931559920310974,-1.9435700178146362
1771514681417723600,3.5157236328125,0.729062020778656,0.920058012008667,-2.0445220470428467
1771514681438130200,3.536130126953125,-0.8025580048561096,1.3428640365600586,-1.4729479551315308
1771514681458541300,3.556541259765625,-1.029871940612793,2.298588991165161,-1.6919599771499634
1771514681478956000,3.5769560546875,-1.8601319789886475,2.116360902786255,-1.0420290231704712
1771514681499367400,3.597367431640625,-1.2519409656524658,1.7242469787597656,1.096439003944397
1771514681519775700,3.617775634765625,-0.1790589988231659,1.7528539896011353,2.3834431171417236
1771514681540186400,3.638186279296875,-0.28733599185943604,1.907444953918457,0.6749539971351624
1771514681560598000,3.658597900390625,0.2602570056915283,1.1175459623336792,-2.6886379718780518
1771514681581010400,3.679010498046875,2.3176629543304443,1.616629958152771,-3.1788530349731445
1771514681601419800,3.699419677734375,0.5733709931373596,3.0536820888519287,-3.6337099075317383
1771514681621828400,3.719828369140625,-0.14180800318717957,3.17069411277771,-2.77724289894104
1771514681642240300,3.740240234375,-0.27558499574661255,3.877295970916748,-2.32381010055542
1771514681662654200,3.760654296875,1.7784600257873535,2.507204055786133,1.938904047012329
1771514681683069700,3.781069580078125,2.8557589054107666,2.8189609050750732,6.160077095031738
1771514681703484400,3.801484375,4.531897068023682,1.4086259603500366,5.273492813110352
1771514681723893200,3.821893310546875,4.845209121704102,-2.1296908855438232,0.8449839949607849
1771514681744300000,3.842300048828125,4.531592845916748,-1.4333829879760742,0.0578560009598732
1771514681764711000,3.8627109375,2.8451290130615234,-0.09072300046682358,0.952019989490509
1771514681785121300,3.883121337890625,0.40182700753211975,0.15984199941158295,2.36853289604187
1771514681805529900,3.90352978515625,1.8007880449295044,-0.1659580022096634,0.8922569751739502
1771514681825939000,3.92393896484375,1.9216760396957397,-0.42657798528671265,-0.8038380146026611
1771514681846348500,3.9443486328125,2.8954288959503174,0.4882729947566986,-1.6123989820480347
1771514681866758400,3.96475830078125,2.248004913330078,1.1392719745635986,-1.2522499561309814
1771514681887170600,3.985170654296875,0.36999499797821045,1.247041940689087,-1.5011680126190186
1771514681907585000,4.0055849609375,-1.52646005153656,1.3624019622802734,-0.8813830018043518
1771514681927999200,4.025999267578125,-2.44112491607666,1.3037149906158447,0.16051499545574188
1771514681948411600,4.04641162109375,-2.8624489307403564,1.4369959831237793,0.940729022026062
1771514681968821500,4.066821533203125,-2.519618034362793,1.4496530294418335,1.040658950805664
1771514681989229800,4.087229736328125,-0.7021399736404419,1.222532033920288,-0.5218930244445801
1771514682009637400,4.107637451171875,-0.7358989715576172,0.8670719861984253,-0.19959400594234467
1771514682030044400,4.12804443359375,-0.034432001411914825,1.075147032737732,0.16626499593257904
1771514682050450400,4.148450439453125,-1.3341139554977417,0.8055689930915833,1.5422430038452148
1771514682070861000,4.168861083984375,-3.2372970581054688,0.678164005279541,1.4232219457626343
1771514682091272400,4.1892724609375,-4.2276930809021,0.926226019859314,0.4953339993953705
1771514682111682600,4.2096826171875,-4.199512004852295,1.0332679748535156,-0.42632201313972473
1771514682132090000,4.230090087890625,-4.171538829803467,0.45313000679016113,-0.7627469897270203
1771514682152498700,4.250498779296875,-3.189523935317993,0.2049420028924942,-0.5633569955825806
1771514682172911400,4.270911376953125,-2.652448892593384,-0.08161500096321106,-0.20108500123023987
1771514682193323500,4.291323486328125,-1.8117179870605469,-0.7655349969863892,-0.8863030076026917
1771514682213733000,4.311733154296875,-0.9393190145492554,-0.8198239803314209,-1.8915760517120361
1771514682234137600,4.3321376953125,-0.47161000967025757,-0.46804898977279663,-3.3898239135742188
1771514682254545400,4.35254541015625,-0.4099059998989105,-0.4057759940624237,-3.6427230834960938
1771514682274958600,4.37295849609375,-0.12264499813318253,-0.7161080241203308,-2.3631680011749268
1771514682295370200,4.393370361328125,13.282920837402344,1.3233729600906372,-16.423824310302734
1771514682315780400,4.4137802734375,-2.825716972351074,1.8167619705200195,7.419635772705078
1771514682336190700,4.434190673828125,-5.0609660148620605,0.6045309901237488,3.29168701171875
1771514682356605400,4.45460546875,-1.0224100351333618,2.493246078491211,-4.8987250328063965
1771514682377018600,4.4750185546875,0.1566780060529709,1.3369450569152832,-1.6937580108642578
1771514682397425700,4.49542578125,-1.6070009469985962,0.6760759949684143,2.9261040687561035
1771514682417833000,4.5158330078125,0.1411219984292984,0.27539700269699097,4.103185176849365
1771514682438241300,4.5362412109375,2.0576961040496826,0.675387978553772,0.5824249982833862
1771514682458646500,4.556646484375,3.2817130088806152,0.9110069870948792,-1.5621449947357178
1771514682479051300,4.57705126953125,0.40345901250839233,0.5292630195617676,1.4720029830932617
1771514682499456500,4.59745654296875,0.22967100143432617,0.12391100078821182,2.3224689960479736
1771514682519860200,4.617860107421875,1.600046992301941,-0.2121949940919876,1.3879950046539307
1771514682540264200,4.63826416015625,2.0787711143493652,-0.48443499207496643,0.08538399636745453
1771514682560669400,4.65866943359375,1.066640019416809,-0.8802940249443054,-0.0908069983124733
1771514682581076200,4.679076171875,-0.4071030020713806,-0.8142910003662109,0.8630859851837158
1771514682601485600,4.699485595703125,-0.5530920028686523,-1.6291160583496094,-0.16287200152873993
1771514682621895700,4.719895751953125,2.2477118968963623,-0.024872999638319016,-3.9098730087280273
1771514682642303500,4.740303466796875,2.805656909942627,-1.143056035041809,-2.8768789768218994
1771514682662711600,4.760711669921875,1.189728021621704,-1.3388739824295044,-0.2469480037689209
1771514682683119600,4.78111962890625,0.1931069940328598,-0.9550520181655884,-0.15663699805736542
1771514682703524400,4.8015244140625,1.8113410472869873,-0.11332900077104568,-0.49246901273727417
1771514682723926500,4.821926513671875,1.4634979963302612,0.010627999901771545,0.6892309784889221
1771514682744329000,4.842328857421875,2.150233030319214,0.5478289723396301,0.36330801248550415
1771514682764734000,4.86273388671875,1.4798669815063477,0.13276000320911407,0.09325499832630157
1771514682785142000,4.88314208984375,0.7547730207443237,0.6768890023231506,0.20225399732589722
1771514682805553000,4.903552978515625,-0.18610399961471558,0.7964479923248291,0.15528500080108643
1771514682825961500,4.92396142578125,-0.5185239911079407,0.26206499338150024,-0.26184600591659546
1771514682846365700,4.94436572265625,-0.097120001912117,0.577360987663269,-0.9125869870185852
1771514682866773800,4.964773681640625,-0.14749500155448914,-0.49335700273513794,-1.9053030014038086
1771514682887184000,4.985183837890625,1.22734797000885,0.5009080171585083,-0.7929379940032959
1771514682907591700,5.005591796875,2.127545118331909,-0.35585200786590576,-0.33923399448394775
1771514682927997200,5.0259970703125,1.6785509586334229,1.2883360385894775,1.3212909698486328
1771514682948405500,5.046405517578125,0.8968520164489746,0.4713369905948639,-0.44971200823783875
1771514682968811800,5.066811767578125,0.9843320250511169,1.814432978630066,0.8386290073394775
1771514682989214200,5.087214111328125,-0.7988989949226379,0.8509849905967712,-0.25155898928642273
1771514683009617700,5.10761767578125,-0.6352490186691284,2.432154893875122,0.4205920100212097
1771514683030024000,5.12802392578125,-0.7155960202217102,1.8163340091705322,0.6221389770507812
1771514683050431000,5.148430908203125,0.252591997385025,0.6583849787712097,-0.8951820135116577
1771514683070836700,5.168836669921875,0.43754300475120544,1.0903929471969604,0.8341950178146362
1771514683091239400,5.189239501953125,0.799127995967865,-0.12456399947404861,0.6779509782791138
1771514683111641000,5.20964111328125,1.4046980142593384,0.11353900283575058,-0.7806500196456909
1771514683132046800,5.230046875,0.4276820123195648,-0.24831700325012207,0.06727900356054306
1771514683152453600,5.25045361328125,-0.03239300101995468,-0.411655992269516,-0.26704999804496765
1771514683172858000,5.270858154296875,-0.16039599478244781,-0.37404298782348633,0.1726209968328476
1771514683193263900,5.291263916015625,0.7048979997634888,0.078404001891613,-0.604960024356842
1771514683213672700,5.311672607421875,1.2546119689941406,-0.5516420006752014,-0.41179201006889343
1771514683234085000,5.332085205078125,0.7059410214424133,-0.22452500462532043,0.48089998960494995
1771514683254497800,5.352497802734375,0.23726700246334076,-0.9211090207099915,-0.3866269886493683
1771514683274906600,5.37290673828125,1.0731019973754883,0.2487490028142929,0.8358089923858643
1771514683295315000,5.39331494140625,-0.3379310071468353,-0.3057909905910492,-0.8261839747428894
1771514683315724500,5.413724609375,1.1314899921417236,0.35966798663139343,1.4408290386199951
1771514683336134100,5.434134033203125,0.47765499353408813,0.9586889743804932,-0.41216498613357544
1771514683356543200,5.454543212890625,1.087630033493042,-0.16229300200939178,-0.03585100173950195
1771514683376950800,5.47495068359375,0.6226379871368408,1.0867029428482056,0.10653399676084518
1771514683397357800,5.49535791015625,1.187620997428894,-0.24706099927425385,1.1698399782180786
1771514683417770000,5.51577001953125,1.3225220441818237,-0.38719600439071655,-1.1158759593963623
1771514683438189000,5.53618896484375,0.9437879920005798,0.49280598759651184,0.4708169996738434
1771514683458606300,5.5566064453125,0.2739669978618622,-1.2970590591430664,-1.734084963798523
1771514683479019300,5.577019287109375,-0.057378001511096954,0.5877100229263306,0.04719100147485733
1771514683499431700,5.597431640625,0.14406199753284454,-0.1931619942188263,-1.9179500341415405
1771514683519845000,5.61784521484375,-0.7426779866218567,0.43540599942207336,-0.05422800034284592
1771514683540258000,5.638258056640625,-0.5305600166320801,-0.7200369834899902,-1.7997729778289795
1771514683560666400,5.658666259765625,0.25449201464653015,-0.2693679928779602,-1.3258379697799683
1771514683581074200,5.67907421875,2.873450994491577,-0.727537989616394,-1.128098964691162
1771514683601488100,5.699488037109375,2.591355085372925,-0.9219020009040833,-0.22233599424362183
1771514683621906200,5.71990625,1.5199370384216309,-1.0808049440383911,-2.2774319648742676
1771514683642320600,5.740320556640625,-0.7177370190620422,-0.1255510002374649,-1.7720869779586792
1771514683662728700,5.760728759765625,-1.175115942955017,0.3305880129337311,-1.852033019065857
1771514683683139600,5.7811396484375,-1.4000179767608643,0.10873399674892426,-2.3283820152282715
1771514683703552000,5.801552001953125,-1.809041976928711,1.3384490013122559,-0.14624300599098206
1771514683723959800,5.821959716796875,-2.2984941005706787,1.1120460033416748,-0.4192639887332916
1771514683744367400,5.842367431640625,0.9974240064620972,1.1672619581222534,1.8051029443740845
1771514683764775000,5.86277490234375,1.6793769598007202,0.42052799463272095,-0.5649939775466919
1771514683785181200,5.88318115234375,1.7529850006103516,1.0410610437393188,1.6278259754180908
1771514683805586400,5.90358642578125,-1.0127229690551758,-0.31625300645828247,-0.48109298944473267
1771514683825993200,5.9239931640625,0.5260909795761108,2.291029930114746,1.2416690587997437
1771514683846402600,5.944402587890625,-0.7936350107192993,0.08580199629068375,-1.715142011642456
1771514683866810000,5.96481005859375,0.6272090077400208,2.523883104324341,3.9116721153259277
1771514683887215000,5.985215087890625,-0.11397899687290192,0.45171499252319336,-1.7251830101013184
1771514683907621400,6.005621337890625,0.5300570130348206,1.7115139961242676,4.127896785736084
1771514683928027100,6.026027099609375,-0.2884419858455658,0.9371089935302734,-1.0182950496673584
1771514683948434400,6.046434326171875,-0.44693800806999207,2.466053009033203,3.7170040607452393
1771514683968844800,6.0668447265625,-1.6834980249404907,1.5458290576934814,-1.5003550052642822
1771514683989254400,6.08725439453125,0.3958449959754944,1.4181890487670898,2.799685001373291
1771514684009659000,6.107658935546875,-0.6582279801368713,0.6139940023422241,-1.925812005996704
1771514684030063000,6.12806298828125,0.7544630169868469,-0.14760899543762207,3.008441925048828
1771514684050467300,6.14846728515625,-0.3971770107746124,0.6963989734649658,-2.839871883392334
1771514684070869200,6.168869140625,1.196560025215149,-2.320997953414917,1.4134860038757324
1771514684091272400,6.1892724609375,1.878533959388733,1.7588679790496826,-3.632143020629883
1771514684111676000,6.209676025390625,0.6377779841423035,-3.6091270446777344,2.86456298828125
1771514684132081400,6.230081298828125,2.814621925354004,2.2111899852752686,-4.766944885253906
1771514684152490000,6.250489990234375,-0.797169029712677,-4.706338882446289,2.8909029960632324
1771514684172896800,6.270896728515625,4.7726569175720215,2.3039309978485107,-2.233376979827881
1771514684193300200,6.29130029296875,0.03971099853515625,-3.877962112426758,2.467017889022827
1771514684213703200,6.311703125,5.049952983856201,1.184048056602478,-0.5255280137062073
1771514684234105900,6.33210595703125,-1.3288769721984863,-2.711493968963623,1.4748680591583252
1771514684254509000,6.352509033203125,2.6205430030822754,1.4327119588851929,-0.29587501287460327
1771514684274912800,6.372912841796875,-1.308190941810608,-2.520904064178467,-0.07713299989700317
1771514684295316700,6.393316650390625,2.9682419300079346,0.8646079897880554,0.4727399945259094
1771514684315721200,6.41372119140625,-1.6926599740982056,-2.594636917114258,-1.2841559648513794
1771514684336125200,6.434125244140625,4.123230934143066,-0.15966400504112244,1.4734790325164795
1771514684356528400,6.4545283203125,0.22571100294589996,-2.1435439586639404,-0.17987500131130219
1771514684376931000,6.47493115234375,4.012962818145752,-0.4428260028362274,0.7450249791145325
1771514684397336600,6.495336669921875,0.01826700009405613,-1.9704610109329224,-1.1668809652328491
1771514684417747200,6.515747314453125,2.926903009414673,-0.728630006313324,1.5642930269241333
1771514684438161400,6.536161376953125,1.7337980270385742,-1.4960190057754517,-0.764316976070404
1771514684458574300,6.55657421875,1.9125980138778687,0.07380399852991104,2.2365219593048096
1771514684478983000,6.57698291015625,1.3991270065307617,-0.5492100119590759,-1.8325769901275635
1771514684499390200,6.59739013671875,-0.05195999890565872,0.9257439970970154,0.6358320116996765
1771514684519800800,6.61780078125,-1.2017159461975098,1.0640039443969727,-1.5407240390777588
1771514684540212000,6.6382119140625,-0.3725540041923523,0.1437930017709732,0.5379949808120728
1771514684560619300,6.658619384765625,0.49300500750541687,1.0317330360412598,2.0105481147766113
1771514684581025500,6.679025634765625,2.969733953475952,-0.7858549952507019,-0.42473700642585754
1771514684601431600,6.699431640625,0.6333760023117065,1.1247349977493286,2.1460609436035156
1771514684621838000,6.719838134765625,2.2030088901519775,-0.004530000034719706,-1.603140950202942
1771514684642244600,6.74024462890625,-0.9620029926300049,1.8948450088500977,1.2613970041275024
1771514684662655700,6.76065576171875,1.0384440422058105,0.13972699642181396,-3.154386043548584
1771514684683071200,6.7810712890625,-2.06439208984375,2.7354860305786133,0.6419119834899902
1771514684703485700,6.801485595703125,1.489577054977417,-1.5782599449157715,-6.484938144683838
1771514684723896000,6.82189599609375,-2.5791969299316406,3.0485830307006836,3.7864999771118164
1771514684744303600,6.8423037109375,3.1644370555877686,-2.279294967651367,-8.162091255187988
1771514684764710400,6.86271044921875,-4.444255828857422,3.4038379192352295,5.377877235412598
1771514684785119500,6.883119384765625,2.9666500091552734,-1.2088359594345093,-7.851316928863525
1771514684805529900,6.90352978515625,-3.4544730186462402,3.2112789154052734,5.469913959503174
1771514684825936400,6.923936279296875,3.750540018081665,-0.1409270018339157,-2.2786149978637695
1771514684846344000,6.944343994140625,-0.2230989933013916,2.3525431156158447,3.8626201152801514
1771514684866750500,6.96475048828125,1.5078699588775635,1.5223029851913452,2.2430078983306885
1771514684887154200,6.985154296875,-0.023548999801278114,0.37802499532699585,-0.937084972858429
1771514684907558700,7.00555859375,-1.7927249670028687,3.091586112976074,3.9506959915161133
1771514684927962000,7.025962158203125,0.810500979423523,-2.0735599994659424,-5.554173946380615
1771514684948363300,7.04636328125,0.12416599690914154,3.12567400932312,6.120625972747803
1771514684968767000,7.06676708984375,0.22392399609088898,-2.2199668884277344,-2.650437116622925
1771514684989172500,7.08717236328125,-0.6936879754066467,1.694471001625061,4.807352066040039
1771514685009578800,7.107578857421875,0.8780699968338013,0.3972660005092621,-0.8433049917221069
1771514685029986000,7.127986083984375,2.313589096069336,0.016023000702261925,0.7666860222816467
1771514685050393000,7.14839306640625,-1.858441948890686,2.3167309761047363,4.184568881988525
1771514685070800000,7.1687998046875,3.8338489532470703,-1.3599549531936646,-2.750930070877075
1771514685091206000,7.189205810546875,-0.7595430016517639,2.6327528953552246,4.309275150299072
1771514685111612400,7.2096123046875,2.2502429485321045,-1.6601409912109375,-0.9009339809417725
1771514685132021800,7.230021728515625,1.6866329908370972,-0.363321989774704,2.046283006668091
1771514685152435000,7.25043505859375,2.2286839485168457,-0.663316011428833,-0.05427800118923187
1771514685172847600,7.27084765625,1.6567349433898926,-3.545660972595215,-1.0503660440444946
1771514685193256700,7.291256591796875,1.3721790313720703,-1.557554006576538,0.8802210092544556
1771514685213666800,7.311666748046875,-1.4764560461044312,-3.0907089710235596,0.10937599837779999
1771514685234080000,7.332080078125,4.214983940124512,-0.3665960133075714,1.592918038368225
1771514685254490400,7.352490478515625,2.050046920776367,-1.5267709493637085,-1.53256094455719
1771514685274898000,7.37289794921875,2.1158640384674072,-0.5675789713859558,-0.7155479788780212
1771514685295308000,7.39330810546875,0.29544198513031006,-1.058609962463379,-2.4187510013580322
1771514685315719200,7.41371923828125,-0.5340059995651245,-0.9436740279197693,-0.2614839971065521
1771514685336128800,7.434128662109375,1.825943946838379,-0.10190100222826004,0.34084099531173706
1771514685356537300,7.454537353515625,3.6784989833831787,1.3345669507980347,1.9400800466537476
1771514685376943000,7.474943115234375,1.8512239456176758,1.8614200353622437,0.41388100385665894
1771514685397349600,7.495349609375,-0.06882999837398529,2.2997050285339355,0.5142009854316711
1771514685417760000,7.515760009765625,0.9666270017623901,0.8300870060920715,-2.465049982070923
1771514685438169900,7.536169921875,-2.616952896118164,2.0907540321350098,0.38331300020217896
1771514685458580700,7.556580810546875,2.105125904083252,-1.4521770477294922,-2.331207036972046
1771514685478990300,7.576990234375,-2.249964952468872,1.7077250480651855,-0.6129419803619385
1771514685499396000,7.59739599609375,1.6082429885864258,-0.7153769731521606,-0.9937329888343811
1771514685519800800,7.61780078125,-2.171525001525879,1.2029000520706177,0.2403939962387085
1771514685540207000,7.63820703125,3.242753028869629,2.631819009780884,-0.3981510102748871
1771514685560613600,7.658613525390625,-4.642173767089844,0.11143799871206284,0.497994989156723
1771514685581021700,7.679021728515625,5.344872951507568,2.8146069049835205,0.6716449856758118
1771514685601429500,7.699429443359375,-5.053092956542969,-0.3338089883327484,2.0552260875701904
1771514685621835800,7.719835693359375,7.2429609298706055,3.33138108253479,1.3251010179519653
1771514685642241800,7.74024169921875,-3.939479112625122,-3.297981023788452,-5.390164852142334
1771514685662647000,7.76064697265625,4.685342788696289,5.341578960418701,2.6858038902282715
1771514685683052500,7.781052490234375,-3.0880439281463623,-4.974238872528076,-7.379683017730713
1771514685703458000,7.8014580078125,2.7916500568389893,5.548066139221191,6.064027786254883
1771514685723863800,7.82186376953125,0.9343580007553101,-4.818767070770264,-8.998103141784668
1771514685744269000,7.84226904296875,-0.6391010284423828,3.276163101196289,5.18602180480957
1771514685764674600,7.862674560546875,0.12182500213384628,-0.2969909906387329,-2.299285888671875
1771514685785085000,7.8830849609375,-1.5243589878082275,0.5904229879379272,2.329235076904297
1771514685805500000,7.9035,3.884773015975952,1.0643969774246216,1.4261360168457031
1771514685825913900,7.923913818359375,2.311424970626831,-2.0022199153900146,-1.3482580184936523
1771514685846323000,7.944322998046875,1.5612640380859375,2.8737919330596924,5.645546913146973
1771514685866729200,7.964729248046875,-4.357460021972656,-0.5415840148925781,-2.8853979110717773
1771514685887136500,7.985136474609375,-6.318728923797607,3.492943048477173,2.4722769260406494
1771514685907545900,8.0055458984375,2.3293209075927734,2.3674728870391846,-1.3204859495162964
1771514685927955700,8.025955810546876,5.057642936706543,1.0276509523391724,0.8268030285835266
1771514685948362200,8.0463623046875,-2.66259503364563,3.0042710304260254,7.669025897979736
1771514685968768300,8.066768310546875,-4.367586135864258,2.236212968826294,2.3347809314727783
1771514685989177000,8.087177001953124,-1.2471189498901367,2.968048095703125,2.989732027053833
1771514686009589000,8.107589111328124,3.981221914291382,2.2626259326934814,1.6791479587554932
1771514686030000400,8.12800048828125,7.574416160583496,-0.08383599668741226,1.2789870500564575
1771514686050408000,8.148407958984375,2.9335238933563232,0.75279301404953,3.5642049312591553
1771514686070812700,8.168812744140626,3.501060962677002,-1.8375530242919922,-1.7930129766464233
1771514686091216600,8.189216552734376,-0.6219469904899597,-2.5785160064697266,-4.383849143981934
1771514686111623000,8.209622802734375,-1.305482029914856,-4.441388130187988,0.7249159812927246
1771514686132029200,8.230029296875,1.524472951889038,-5.911066055297852,-1.5178630352020264
1771514686152434400,8.250434326171876,3.8080949783325195,-3.1368470191955566,2.6595818996429443
1771514686172842200,8.27084228515625,2.7398319244384766,-2.493691921234131,-3.3855180740356445
1771514686193250000,8.29125,-1.6934469938278198,0.3179889917373657,-1.0379220247268677
1771514686213657600,8.31165771484375,1.2097630500793457,1.796584963798523,-3.7055530548095703
1771514686234064600,8.332064697265626,-2.331446886062622,0.7048659920692444,-2.9375030994415283
1771514686254472200,8.35247216796875,-0.01476799976080656,1.260714054107666,3.2302889823913574
1771514686274882300,8.37288232421875,1.3211430311203003,-1.7869999408721924,-0.3982349932193756
1771514686295290400,8.393290283203125,-0.8209459781646729,2.304805040359497,0.9583449959754944
1771514686315695600,8.413695556640626,-1.7012029886245728,-2.2113420963287354,-4.876968860626221
1771514686336102700,8.4341025390625,2.157435894012451,1.0557379722595215,1.061257004737854
1771514686356512000,8.454511962890624,0.5171210169792175,-1.9204189777374268,-4.490507125854492
1771514686376922400,8.47492236328125,3.1509180068969727,0.6073300242424011,-0.16867299377918243
1771514686397331700,8.495331787109375,0.06786999851465225,-1.849545955657959,-7.448677062988281
1771514686417739000,8.515739013671874,0.3842819929122925,0.07596000283956528,1.103145956993103
1771514686438146600,8.536146484375,-3.7004289627075195,-3.2128241062164307,-3.121746063232422
1771514686458555000,8.556554931640624,0.4161359965801239,0.30845901370048523,4.337675094604492
1771514686478959600,8.576959716796875,0.301831990480423,-3.049165964126587,-2.2616488933563232
1771514686499362600,8.597362548828125,2.0920939445495605,1.649433970451355,3.5791139602661133
1771514686519765800,8.617765869140625,-1.9977819919586182,0.2509140074253082,0.01777300052344799
1771514686540168400,8.63816845703125,1.313992977142334,2.5785090923309326,1.6913889646530151
1771514686560569900,8.65856982421875,2.523977041244507,0.6888279914855957,-5.118267059326172
1771514686580971500,8.678971435546876,-0.7680780291557312,1.5745699405670166,2.9932990074157715
1771514686601380600,8.699380615234375,-2.04117488861084,-2.340904951095581,-0.898065984249115
1771514686621793300,8.719793212890625,2.7160089015960693,0.8284599781036377,2.0903899669647217
1771514686642201000,8.740201171875,1.2956379652023315,-2.2775230407714844,-1.1798889636993408
1771514686662608400,8.7606083984375,2.398408889770508,2.7725911140441895,2.8415470123291016
1771514686683016400,8.781016357421874,-1.670524001121521,1.416375994682312,-2.4809439182281494
1771514686703421000,8.8014208984375,-1.934116005897522,3.9679698944091797,2.7126550674438477
1771514686723822800,8.82182275390625,0.5965880155563354,0.25039398670196533,-1.4714250564575195
1771514686744226000,8.84222607421875,4.42025899887085,1.725546956062317,4.204061031341553
1771514686764630500,8.862630615234375,3.560620069503784,-1.4462430477142334,1.7472519874572754
1771514686785036300,8.883036376953125,1.2021729946136475,0.4121200144290924,3.9839680194854736
1771514686805444400,8.9034443359375,-0.7198240160942078,-1.7282400131225586,-0.26534199714660645
1771514686825853400,8.923853515625,2.299807071685791,-0.1360670030117035,1.1027719974517822
1771514686846260500,8.944260498046875,1.3998850584030151,-1.8155440092086792,-1.5821189880371094
1771514686866663700,8.96466357421875,1.2607450485229492,-2.2879478931427,2.597430944442749
1771514686887066400,8.98506640625,-1.1080080270767212,-2.529400110244751,-3.943260908126831
1771514686907471000,9.00547119140625,1.7640329599380493,-1.2477649450302124,2.1688270568847656
1771514686927876400,9.02587646484375,0.8143810033798218,-3.9918079376220703,-4.904904842376709
1771514686948285200,9.04628515625,2.342535972595215,-0.06648799777030945,2.8051819801330566
1771514686968697000,9.066697021484375,-2.349522113800049,-1.6266119480133057,-2.623753070831299
1771514686989106400,9.0871064453125,1.8964600563049316,-1.0565799474716187,3.4723150730133057
1771514687009513000,9.107512939453125,2.0741961002349854,-0.06294500082731247,-4.575940132141113
1771514687029922800,9.1279228515625,-0.2956550121307373,0.25254198908805847,2.0807058811187744
1771514687050336500,9.14833642578125,-3.000731945037842,1.6209349632263184,-0.4608069956302643
1771514687070749400,9.16874951171875,0.5427089929580688,-0.9363330006599426,0.1043429970741272
1771514687091160600,9.18916064453125,3.070394992828369,1.3541890382766724,-1.788993000984192
1771514687111568000,9.20956787109375,1.8201450109481812,-1.6734850406646729,0.16533899307250977
1771514687131974000,9.229973876953125,1.1388870477676392,0.9935910105705261,-0.18043899536132812
1771514687152380000,9.2503798828125,-1.7367440462112427,-1.216117024421692,-0.04840699955821037
1771514687172784000,9.2707841796875,-1.9136370420455933,2.68533992767334,4.0142741203308105
1771514687193190000,9.29118994140625,-1.9302469491958618,-1.692234992980957,1.6130720376968384
1771514687213596200,9.31159619140625,3.6461288928985596,2.529202938079834,1.0186409950256348
1771514687233999600,9.33199951171875,4.2200398445129395,-1.7148560285568237,-1.6147459745407104
1771514687254404000,9.352404052734375,1.8696149587631226,3.1520979404449463,1.164302945137024
1771514687274811000,9.372810791015626,-3.5429670810699463,-2.238029956817627,-1.7703959941864014
1771514687295218400,9.393218505859375,0.837261974811554,1.6727620363235474,2.815943956375122
1771514687315625200,9.413625244140626,0.6610270142555237,-3.0524399280548096,-0.9614430069923401
1771514687336029400,9.434029541015626,2.595141887664795,1.2971700429916382,3.632714033126831
1771514687356435000,9.45443505859375,-1.5637789964675903,-1.6819130182266235,-2.6852879524230957
1771514687376843000,9.474843017578126,0.962020993232727,1.8378429412841797,1.2552709579467773
1771514687397252900,9.4952529296875,-0.5053359866142273,-0.7903119921684265,-4.097664833068848
1771514687417666600,9.51566650390625,-0.14633600413799286,0.9251649975776672,2.7099850177764893
1771514687438079500,9.53607958984375,0.31009599566459656,-2.8551440238952637,-0.6945310235023499
1771514687458488600,9.556488525390625,3.8218770027160645,0.21220000088214874,2.3584790229797363
1771514687478895400,9.576895263671876,2.17808198928833,-1.233504056930542,0.666923999786377
1771514687499302700,9.597302734375,0.9209539890289307,0.010161000303924084,-0.009456000290811062
1771514687519710000,9.6177099609375,0.21622799336910248,0.38702601194381714,-0.19854600727558136
1771514687540117800,9.63811767578125,0.7848799824714661,-1.4629770517349243,-0.8063759803771973
1771514687560528100,9.658528076171875,0.8329229950904846,0.13564999401569366,0.8592650294303894
1771514687580938500,9.6789384765625,0.20358599722385406,-2.2156710624694824,0.5712609887123108
1771514687601346300,9.69934619140625,0.8002169728279114,-1.326127052307129,0.021599000319838524
1771514687621754400,9.71975439453125,1.056270956993103,-1.8314650058746338,1.1891889572143555
1771514687642164500,9.74016455078125,1.5681250095367432,-2.521738052368164,-1.327051043510437
1771514687662573600,9.760573486328125,2.7450830936431885,0.24546900391578674,0.7227550148963928
1771514687682984200,9.780984130859375,-0.274728000164032,-1.6355910301208496,-0.5462759733200073
1771514687703395000,9.80139501953125,-0.3257890045642853,1.40755295753479,-0.11191800236701965
1771514687723804000,9.821803955078124,-0.4844279885292053,1.2924129962921143,-0.2874549925327301
1771514687744214500,9.842214599609376,0.9728509783744812,1.0215049982070923,1.191622018814087
1771514687764625200,9.862625244140625,2.775563955307007,0.22810600697994232,-0.020471999421715736
1771514687785036300,9.883036376953125,1.5745530128479004,0.7244380116462708,0.9026569724082947
1771514687805449500,9.903449462890626,-0.5719649791717529,0.7358400225639343,1.9075289964675903
1771514687825863400,9.923863525390624,1.6291619539260864,-1.401566982269287,2.01590895652771
1771514687846281000,9.944281005859375,4.4207282066345215,-2.144697904586792,-0.25039198994636536
1771514687866698200,9.9646982421875,1.4702229499816895,2.328416109085083,-1.2022969722747803
1771514687887114500,9.985114501953126,-2.4967830181121826,-3.151716947555542,-1.9013919830322266
1771514687907532300,10.0055322265625,0.9753530025482178,0.14805300533771515,0.5717509984970093
1771514687927943400,10.025943359375,1.914749026298523,-2.9341249465942383,-3.3504719734191895
1771514687948351200,10.046351318359376,1.3939260244369507,0.17894800007343292,1.6846050024032593
1771514687968762600,10.0667626953125,-1.535586953163147,-0.20906400680541992,-1.9251470565795898
1771514687989174800,10.0871748046875,-1.3382899761199951,-2.280100107192993,-0.5488119721412659
1771514688009586000,10.1075859375,3.0872249603271484,1.6716190576553345,-2.9272289276123047
1771514688029995500,10.12799560546875,1.8314889669418335,1.1839540004730225,-0.1848520040512085
1771514688050405000,10.148405029296875,-0.7069060206413269,0.851714015007019,1.4891890287399292
1771514688070818300,10.168818359375,-0.028567999601364136,-0.19318799674510956,-0.5376539826393127
1771514688091230500,10.18923046875,-0.4094429910182953,2.2069718837738037,-0.9973639845848083
1771514688111637000,10.209636962890626,1.3910590410232544,0.2941100001335144,0.4396600127220154
1771514688132044800,10.230044921875,1.7800990343093872,0.40699800848960876,-0.3133690059185028
1771514688152454100,10.2504541015625,-0.2040809988975525,0.554203987121582,1.8890169858932495
1771514688172863200,10.27086328125,0.6739510297775269,-1.1172480583190918,-0.3470830023288727
1771514688193272600,10.2912724609375,1.584867000579834,-0.16523799300193787,-0.5112109780311584
1771514688213680400,10.311680419921874,0.5434520244598389,0.33014100790023804,-0.9752110242843628
1771514688234090500,10.332090576171876,-0.39090201258659363,-1.2113330364227295,0.21085500717163086
1771514688254503000,10.3525029296875,0.20589399337768555,-2.085844039916992,-0.0840660035610199
1771514688274911000,10.372910888671875,-0.0716399997472763,-1.9966230392456055,-1.1050859689712524
1771514688295316200,10.393316162109375,2.396667957305908,-1.416746973991394,-0.24382899701595306
1771514688315723800,10.413723876953124,2.823198080062866,-0.7511150240898132,1.0593359470367432
1771514688336130600,10.434130615234375,1.271170973777771,-0.4139479994773865,0.7844380140304565
1771514688356537900,10.454537841796874,-0.2880200147628784,0.45449700951576233,0.6795729994773865
1771514688376943900,10.47494384765625,-1.1264410018920898,1.37923002243042,1.6863160133361816
1771514688397349400,10.495349365234375,-2.374798059463501,1.7820940017700195,2.7592239379882812
1771514688417759200,10.51575927734375,-2.3107779026031494,1.756093978881836,3.108474016189575
1771514688438171000,10.5361708984375,-1.247817039489746,1.8180619478225708,2.6950650215148926
1771514688458580500,10.55658056640625,-1.2740470170974731,1.954990029335022,2.1471738815307617
1771514688478988000,10.576988037109375,-2.3958969116210938,1.8342609405517578,2.159485101699829
1771514688499394800,10.597394775390624,-3.3448119163513184,2.0712499618530273,2.2820699214935303
1771514688519803400,10.617803466796875,-3.7600789070129395,1.9777779579162598,0.9946519732475281
1771514688540214800,10.63821484375,-2.4894111156463623,1.797644019126892,-0.3491879999637604
1771514688560629200,10.658629150390626,-0.7380890250205994,1.6435949802398682,-1.0764269828796387
1771514688581043200,10.679043212890624,0.7469000220298767,0.8496699929237366,-1.3357280492782593
1771514688601452300,10.699452392578126,1.364596962928772,0.7033969759941101,-1.5402380228042603
1771514688621862000,10.71986181640625,1.1566070318222046,0.09682100266218185,-1.9663690328598022
1771514688642271500,10.740271484375,1.3069130182266235,-0.5028560161590576,-1.2007490396499634
1771514688662683400,10.760683349609375,1.7985800504684448,0.28373798727989197,-0.6483910083770752
1771514688683095000,10.781094970703125,2.605794906616211,0.7649400234222412,-3.4793379306793213
1771514688703502000,10.801502197265625,1.0229580402374268,1.125939965248108,-5.425481796264648
1771514688723907800,10.821907958984376,-0.16819000244140625,1.1421910524368286,-5.3965229988098145
1771514688744312300,10.842312255859374,1.75239098072052,0.6087009906768799,-2.6755330562591553
1771514688764715500,10.862715576171874,2.7904510498046875,0.6412550210952759,-1.4892419576644897
1771514688785119200,10.883119140625,2.6896169185638428,0.8676980137825012,-2.797529935836792
1771514688805524200,10.903524169921875,0.8989859819412231,1.1319869756698608,-3.8785040378570557
1771514688825930000,10.923929931640625,-1.595445990562439,1.1669600009918213,-2.307866096496582
1771514688846334200,10.944334228515626,-2.1180169582366943,1.0091129541397095,-0.010239999741315842
1771514688866741500,10.964741455078125,0.8411650061607361,0.47446900606155396,0.30699700117111206
1771514688887150600,10.985150634765626,3.2649450302124023,0.6053280234336853,-1.050603985786438
1771514688907558700,11.00555859375,2.5466721057891846,0.6532639861106873,-2.0851669311523438
1771514688927966500,11.025966552734374,1.0265469551086426,0.3003079891204834,-0.8277400135993958
1771514688948375800,11.046375732421875,0.9000099897384644,-0.5022640228271484,0.5778570175170898
1771514688968783000,11.066783203125,1.739691972732544,-0.6518589854240417,0.9303590059280396
1771514688989187600,11.0871875,2.813844919204712,-1.1716489791870117,0.45715299248695374
1771514689009595600,11.107595703125,4.5376691818237305,-2.1923980712890625,0.0909309983253479
1771514689030003000,11.1280029296875,4.7131547927856445,-2.8720269203186035,0.002268000040203333
1771514689050403600,11.148403564453124,3.602617025375366,-2.44212007522583,1.2810649871826172
1771514689070802700,11.168802734375,1.2196769714355469,-1.2116700410842896,1.2732019424438477
1771514689091203600,11.18920361328125,-0.853177011013031,-1.0934280157089233,0.37533798813819885
1771514689111605200,11.209605224609374,-0.7714809775352478,-1.345139980316162,-0.05532599985599518
1771514689132010800,11.2300107421875,1.3963780403137207,-1.2388910055160522,0.47804298996925354
1771514689152421600,11.250421630859375,3.490499973297119,-1.9704689979553223,0.07549899816513062
1771514689172836000,11.270836181640625,3.440778970718384,-1.208482027053833,1.1176879405975342
1771514689193250300,11.291250244140626,1.5608550310134888,-0.45609599351882935,-0.08688899874687195
1771514689213660000,11.311659912109375,-0.5125510096549988,-0.2600730061531067,-0.8465160131454468
1771514689234064400,11.332064453125,-1.9992029666900635,1.0613080263137817,0.6050410270690918
1771514689254466600,11.352466552734375,-1.5780839920043945,0.6706690192222595,-0.7561569809913635
1771514689274869500,11.372869384765625,0.5295720100402832,0.5067750215530396,-1.5511300563812256
1771514689295274200,11.393274169921876,0.6002860069274902,0.6255350112915039,-0.4553129971027374
1771514689315678200,11.41367822265625,-0.06661099940538406,0.8928419947624207,-0.619117021560669
1771514689336080000,11.434079833984375,-0.40098801255226135,0.7077860236167908,-1.4045920372009277
1771514689356483600,11.454483642578126,-0.9647939801216125,0.22948099672794342,-0.13137400150299072
1771514689376891100,11.47489111328125,0.9790530204772949,-0.4937959909439087,1.184569001197815
1771514689397298700,11.495298583984376,4.1351118087768555,-0.6672850251197815,1.6200989484786987
1771514689417702400,11.515702392578126,5.017823219299316,-0.26524999737739563,2.0316250324249268
1771514689438103800,11.536103759765625,3.813977003097534,-0.4815270006656647,2.136059045791626
1771514689458511600,11.55651171875,0.6426709890365601,-1.0646519660949707,2.9749090671539307
1771514689478923300,11.57692333984375,-0.7935370206832886,-1.4170520305633545,0.9809859991073608
1771514689499334000,11.597333984375,-0.7939490079879761,-1.423035979270935,0.05368100106716156
1771514689519745300,11.617745361328126,-1.3702969551086426,-0.7102640271186829,-0.25063300132751465
1771514689540152800,11.63815283203125,-2.6697371006011963,0.20710599422454834,0.17897599935531616
1771514689560559600,11.6585595703125,-3.339202880859375,0.13282500207424164,-0.02011900022625923
1771514689580968400,11.678968505859375,-1.4610350131988525,0.5171869993209839,-0.3941659927368164
1771514689601375500,11.69937548828125,1.2602150440216064,1.5133490562438965,0.5854259729385376
1771514689621780200,11.7197802734375,4.27782678604126,1.4860420227050781,0.6881219744682312
1771514689642184000,11.740183837890624,4.926064968109131,0.9105560183525085,0.1400420069694519
1771514689662588700,11.760588623046875,2.3272318840026855,0.5990080237388611,0.2620829939842224
1771514689682995700,11.78099560546875,0.2928119897842407,0.5993109941482544,-0.004461999982595444
1771514689703400400,11.801400390625,1.715250015258789,0.8317499756813049,-1.2316750288009644
1771514689723801600,11.821801513671875,1.552204966545105,0.8553130030632019,-1.1985169649124146
1771514689744202800,11.84220263671875,-0.17662599682807922,0.3946380019187927,-0.7609609961509705
1771514689764604200,11.862604248046875,-1.5569109916687012,0.10270100086927414,-0.3803499937057495
1771514689785005000,11.883005126953124,-1.6274000406265259,-0.0031640001107007265,-0.21204300224781036
1771514689805205200,11.903205322265626,-0.31502100825309753,0.28227099776268005,-0.062283001840114594
1771514689815511300,11.91351123046875,0.5794010162353516,0.2776379883289337,-0.25313800573349
1771514689836020500,11.9340205078125,1.3731720447540283,0.26942500472068787,-0.24883699417114258
1771514689856428800,11.9544287109375,0.6013749837875366,-0.21539899706840515,0.5314610004425049
1771514689876833800,11.974833740234375,-0.12084700167179108,-0.6801149845123291,0.9653530120849609
1771514689897234700,11.995234619140625,0.14682599902153015,-0.3344219923019409,1.2654720544815063
1771514689917636000,12.015635986328125,1.4769669771194458,0.15686100721359253,1.3074640035629272
1771514689938038800,12.036038818359375,1.8837250471115112,0.03626599907875061,0.6943280100822449
1771514689958443500,12.056443603515625,0.7976449728012085,-0.3411160111427307,0.026024000719189644
1771514689978848800,12.076848876953125,-0.17050600051879883,-0.5156199932098389,0.04739399999380112
1771514689999251000,12.0972509765625,0.24336299300193787,-0.6013680100440979,-0.07929500192403793
1771514690019649500,12.1176494140625,1.1782000064849854,-0.8837180137634277,-0.3570680022239685
1771514690040049700,12.138049560546875,0.8417900204658508,-1.0410979986190796,-0.4004549980163574
1771514690060453600,12.15845361328125,0.48065200448036194,-0.6807889938354492,0.12797600030899048
1771514690080857900,12.17885791015625,1.0218260288238525,-0.37891900539398193,-0.10462599992752075
1771514690101260300,12.19926025390625,1.063362956047058,-0.0676800012588501,-0.5672619938850403
1771514690121664000,12.2196640625,0.34998100996017456,0.3263149857521057,-0.6528639793395996
1771514690142068500,12.240068359375,-0.4476639926433563,0.7676039934158325,-0.5510039925575256
1771514690162471700,12.2604716796875,-0.42342498898506165,0.9668890237808228,-0.47026199102401733
1771514690182878200,12.280878173828125,-0.19382399320602417,0.9256179928779602,-0.31914201378822327
1771514690203290600,12.30129052734375,0.10138899832963943,0.8851410150527954,-0.12772999703884125
1771514690223702300,12.321702392578125,0.6416339874267578,0.47261399030685425,-0.30689799785614014
1771514690244107800,12.342107666015625,0.8656020164489746,-0.4298340082168579,-0.6138290166854858
1771514690264509700,12.362509765625,0.6725379824638367,-0.7348650097846985,-0.5139449834823608
1771514690284913200,12.3829130859375,0.7933310270309448,-0.5214909911155701,-0.03556700050830841
1771514690305320400,12.403320556640624,1.6802480220794678,-0.4658240079879761,-0.15493400394916534
1771514690325729000,12.42372900390625,1.6693129539489746,-0.6780120134353638,-0.7109469771385193
1771514690346137600,12.4441376953125,1.19541597366333,-0.5968790054321289,-0.7170150279998779
1771514690366545400,12.46454541015625,1.2616809606552124,-0.4435119926929474,-1.0251699686050415
1771514690386953000,12.484952880859375,0.5976529717445374,-0.1455720067024231,-0.8710690140724182
1771514690407359500,12.505359375,-0.13371099531650543,0.1721699982881546,-0.6613230109214783
1771514690427764000,12.525763916015626,-1.0654449462890625,-0.25427401065826416,-1.0052950382232666
1771514690448168700,12.546168701171876,-2.024441957473755,-0.06148599833250046,-0.6727889776229858
1771514690468574500,12.566574462890625,-0.7923319935798645,0.5318359732627869,-0.18271300196647644
1771514690488979000,12.58697900390625,1.8071130514144897,1.4455280303955078,0.5794029831886292
1771514690509384700,12.607384765625,3.6996700763702393,1.4235470294952393,0.6095190048217773
1771514690529790700,12.627790771484374,3.8973989486694336,1.135403037071228,0.5693259835243225
1771514690550197800,12.64819775390625,2.5066449642181396,0.2579309940338135,-0.04148399829864502
1771514690570603500,12.668603515625,-1.1295579671859741,-0.34769201278686523,-0.2251729965209961
1771514690591003400,12.68900341796875,-3.487828016281128,-0.5015320181846619,0.049550000578165054
1771514690611408000,12.709407958984375,-3.7352850437164307,-0.47591400146484375,0.6047890186309814
1771514690631812600,12.7298125,-1.4263310432434082,0.25839000940322876,1.1180700063705444
1771514690652211200,12.750211181640625,1.7944660186767578,1.0858609676361084,1.7603100538253784
1771514690672610300,12.7706103515625,5.784669876098633,1.2881009578704834,1.8157720565795898
1771514690693012200,12.79101220703125,4.471199035644531,-0.06057300046086311,0.29626399278640747
1771514690713417200,12.811417236328126,-0.20118099451065063,0.04074700176715851,0.016140000894665718
1771514690733825000,12.831824951171875,-3.311940908432007,0.3442760109901428,-0.5780709981918335
1771514690754229200,12.852229248046875,-2.852876901626587,1.7894339561462402,-0.35639798641204834
1771514690774630400,12.87263037109375,1.8432869911193848,2.2378790378570557,-0.30202600359916687
1771514690795033000,12.893033203125,6.252401828765869,0.8796089887619019,-0.5084789991378784
1771514690815433500,12.91343359375,4.637784004211426,-0.6744580268859863,-0.38678601384162903
1771514690835834000,12.933834228515625,-0.20164799690246582,-1.0198030471801758,0.2830750048160553
1771514690856236500,12.954236572265625,-3.9496829509735107,-1.0481009483337402,0.4132089912891388
1771514690876639000,12.974638916015625,-5.08233118057251,-0.8699179887771606,0.4714289903640747
1771514690897040400,12.995040283203124,-3.8579609394073486,-0.698889970779419,0.5263659954071045
1771514690917442600,13.015442626953124,-1.6046600341796875,-0.46221399307250977,0.924793004989624
1771514690937850400,13.035850341796875,1.3753540515899658,-0.1455180048942566,1.9375580549240112
1771514690958260200,13.05626025390625,4.881260871887207,-0.19081799685955048,2.5604801177978516
1771514690978663000,13.076662841796875,7.163907051086426,-0.1419440060853958,2.3084800243377686
1771514690999061200,13.097061279296875,5.843960762023926,-0.6654319763183594,0.648468017578125
1771514691019459800,13.1174599609375,1.6007250547409058,-1.0234179496765137,-0.7105579972267151
1771514691039860700,13.13786083984375,-2.5544259548187256,-0.9834070205688477,-1.2377159595489502
1771514691060265500,13.158265380859374,-5.147500038146973,-0.8087130188941956,-1.0703799724578857
1771514691080671500,13.17867138671875,-5.09464693069458,-0.6219310164451599,-0.6588500142097473
1771514691101080300,13.199080322265624,-3.59301495552063,-0.3579469919204712,-0.3366680145263672
1771514691121486300,13.219486328125,-0.8339279890060425,0.5153930187225342,0.2596130073070526
1771514691141890300,13.239890380859375,3.9513800144195557,1.699684977531433,1.3120919466018677
1771514691162293500,13.26029345703125,7.660789966583252,1.1727739572525024,0.6356620192527771
1771514691182693600,13.280693603515624,6.35203218460083,0.4738309979438782,-0.9291179776191711
1771514691203094000,13.301093994140626,2.543804883956909,0.7923480272293091,-1.8536319732666016
1771514691223496700,13.32149658203125,-0.6667360067367554,1.044780969619751,-3.1103858947753906
1771514691243902500,13.34190234375,-2.219856023788452,1.2656019926071167,-3.7477469444274902
1771514691264304400,13.362304443359376,-1.542754054069519,0.6918339729309082,-3.120452880859375
1771514691284704300,13.382704345703125,-1.0764349699020386,-0.6113010048866272,-1.8628360033035278
1771514691305105400,13.40310546875,-1.01289701461792,-1.8689320087432861,-0.19667500257492065
1771514691325510100,13.42351025390625,-0.699970006942749,-2.5305559635162354,0.962677001953125
1771514691345919200,13.443919189453124,-1.3625279664993286,-2.3383350372314453,1.1683889627456665
1771514691366325000,13.464324951171875,-1.987009048461914,-1.8262039422988892,1.1596670150756836
1771514691386726100,13.48472607421875,-1.9892829656600952,-1.2695050239562988,1.3015949726104736
1771514691407129000,13.505129150390625,-0.010912000201642513,-0.572180986404419,1.6419869661331177
1771514691427535000,13.52553515625,3.19315505027771,0.29640400409698486,1.760275959968567
1771514691447940000,13.545940185546876,4.631380081176758,0.7683089971542358,1.51938796043396
1771514691468343000,13.566343017578125,4.143902778625488,1.2252769470214844,1.3889119625091553
1771514691488743400,13.586743408203125,2.8471009731292725,1.3887799978256226,0.6658779978752136
1771514691509142800,13.607142822265626,0.7602109909057617,1.1958520412445068,0.0016270000487565994
1771514691529543700,13.627543701171875,-0.6351529955863953,1.330314040184021,-0.5586060285568237
1771514691549945000,13.647945068359375,-0.5285680294036865,1.0533360242843628,-1.6981749534606934
1771514691570346500,13.668346435546875,-0.8784649968147278,0.9127449989318848,-1.5861400365829468
1771514691590749700,13.688749755859375,-1.1911200284957886,0.9897930026054382,-0.515395998954773
1771514691611155200,13.7091552734375,-0.08440700173377991,1.1091450452804565,0.10883399844169617
1771514691631562500,13.7295625,1.531082034111023,0.561165988445282,0.1742659956216812
1771514691651969800,13.7499697265625,2.697158098220825,-0.28284698724746704,0.0884149968624115
1771514691672380000,13.7703798828125,2.180820941925049,-1.2868900299072266,-0.020594000816345215
1771514691692792300,13.790792236328125,-0.17063599824905396,-1.648697018623352,0.12800399959087372
1771514691713203700,13.81120361328125,-2.1920289993286133,-1.6312830448150635,0.03169799968600273
1771514691733617400,13.831617431640625,-2.5930869579315186,-1.2780499458312988,-0.06497400254011154
1771514691754027800,13.85202783203125,-1.5792059898376465,-0.7699769735336304,0.09592500329017639
1771514691774433300,13.872433349609375,0.7156000137329102,-0.21558299660682678,0.6774849891662598
1771514691794837000,13.8928369140625,3.34525990486145,0.2959490120410919,0.7740240097045898
1771514691815243300,13.9132431640625,4.06817102432251,0.4089849889278412,0.3956890106201172
1771514691835652900,13.93365283203125,2.6386070251464844,0.7083600163459778,0.36585500836372375
1771514691856061000,13.95406103515625,1.0617729425430298,0.8871300220489502,0.018871000036597252
1771514691876465400,13.97446533203125,0.021939000114798546,1.0788899660110474,-0.4156720042228699
1771514691896867800,13.994867919921875,0.3300279974937439,0.9028199911117554,-0.5439540147781372
1771514691917272000,14.01527197265625,0.9162160158157349,0.25923699140548706,-0.7020300030708313
1771514691937678800,14.035678955078126,0.37033000588417053,-0.1003350019454956,-0.27466699481010437
1771514691958086100,14.056086181640625,-0.4048759937286377,-0.08239399641752243,-0.04028400033712387
1771514691978490000,14.076489990234375,-0.9459890127182007,-0.02159300073981285,-0.004728000145405531
1771514691998892800,14.096892822265625,-1.117656946182251,0.036146000027656555,0.10790099948644638
1771514692019300900,14.11730078125,-0.8974260091781616,-0.1813499927520752,0.06910599768161774
1771514692039714000,14.137714111328124,-0.12556299567222595,-0.24521200358867645,-0.15943799912929535
1771514692060123400,14.158123291015626,-0.10388000309467316,-0.17329800128936768,0.04041599854826927
1771514692080529400,14.178529296875,0.4582349956035614,0.16817300021648407,0.26210901141166687
1771514692100940300,14.198940185546874,1.3543100357055664,0.3830470144748688,0.39566001296043396
1771514692121356800,14.219356689453125,2.6875059604644775,0.7434599995613098,0.6919469833374023
1771514692141775000,14.239775146484375,3.839785099029541,0.798225998878479,1.014420986175537
1771514692162189300,14.260189208984375,3.7602028846740723,0.3008449971675873,0.42256399989128113
1771514692182600400,14.280600341796875,1.6771290302276611,-0.19502900540828705,-0.147038996219635
1771514692203011300,14.30101123046875,-0.7571380138397217,-0.32862600684165955,-0.6744080185890198
1771514692223423700,14.321423828125,-2.1992719173431396,-0.2904120087623596,-1.2179579734802246
1771514692243835100,14.341835205078125,-2.494417905807495,-0.11584500223398209,-1.2734990119934082
1771514692264244500,14.362244384765624,-2.4647629261016846,0.21543000638484955,-0.8444709777832031
1771514692284655600,14.382655517578126,-1.87916898727417,0.6560540199279785,-0.6815279722213745
1771514692305065000,14.40306494140625,0.6715490221977234,0.8679710030555725,-0.5191680192947388
1771514692325471700,14.4234716796875,3.4036989212036133,0.5404639840126038,0.10518799722194672
1771514692345882600,14.443882568359374,3.2635669708251953,-0.2898379862308502,0.42737099528312683
1771514692366293500,14.46429345703125,0.9842730164527893,-0.5012400150299072,0.8220000267028809
1771514692386701300,14.484701416015625,0.1553030014038086,-0.6057890057563782,0.4884980022907257
1771514692407110100,14.505110107421874,0.41262200474739075,-0.9367899894714355,-0.09801500290632248
1771514692427519000,14.52551904296875,-0.6140469908714294,-1.1561130285263062,0.0392410010099411
1771514692447926500,14.545926513671875,-1.4027260541915894,-1.6047070026397705,0.610073983669281
1771514692468330200,14.566330322265625,-0.814740002155304,-1.2215219736099243,1.0404269695281982
1771514692488733400,14.5867333984375,1.1599719524383545,-0.5452370047569275,1.0900659561157227
1771514692509137700,14.6071376953125,3.5612521171569824,-0.019360000267624855,0.6301980018615723
1771514692529541000,14.627541015625,4.1583709716796875,0.106904998421669,0.21684099733829498
1771514692549944600,14.647944580078125,1.762869954109192,0.2014160007238388,-0.1676730066537857
1771514692570350800,14.668350830078126,0.14337599277496338,0.5740169882774353,-0.6552339792251587
1771514692590758400,14.68875830078125,-0.2342280000448227,0.9101939797401428,-1.2845369577407837
1771514692611167000,14.7091669921875,-0.18848800659179688,0.7035530209541321,-1.6321330070495605
1771514692631574500,14.729574462890625,-0.36063799262046814,0.3748759925365448,-1.3297460079193115
1771514692651976200,14.74997607421875,-0.05159600079059601,0.17074300348758698,-0.6538299918174744
1771514692672381200,14.770381103515625,0.37463998794555664,-0.018643999472260475,-0.3291339874267578
1771514692692793300,14.79079345703125,-0.016881000250577927,0.00877199973911047,-0.009482000023126602
1771514692713204200,14.811204345703125,-0.01620499975979328,0.2545500099658966,0.1746550053358078
1771514692733610200,14.8316103515625,0.3182699978351593,0.2879070043563843,0.37660300731658936
1771514692754019600,14.85201953125,0.8027309775352478,-0.028529999777674675,0.4039280116558075
1771514692774430700,14.8724306640625,0.6089680194854736,-0.4135909974575043,0.3256880044937134
1771514692794839600,14.892839599609376,0.13571299612522125,-0.33935999870300293,0.40082699060440063
1771514692815251500,14.91325146484375,0.18249300122261047,0.12154799699783325,0.21327799558639526
1771514692835660300,14.933660400390625,1.5771009922027588,0.48555898666381836,0.20934900641441345
1771514692856063500,14.9540634765625,1.9035290479660034,0.30712199211120605,0.18960200250148773
1771514692876466700,14.974466796875,1.8258529901504517,0.02268899977207184,0.11965300142765045
1771514692896873200,14.994873291015624,0.7325569987297058,-0.03139900043606758,-0.15391799807548523
1771514692917282600,15.015282470703125,-0.5573350191116333,0.0709109976887703,-0.26828399300575256
1771514692937694000,15.03569384765625,-1.4832960367202759,0.11327099800109863,-0.1599379926919937
1771514692958107400,15.056107421875,-1.0628999471664429,0.45947399735450745,0.016705000773072243
1771514692978518000,15.07651806640625,1.1617530584335327,0.549435019493103,-0.027431000024080276
1771514692998925800,15.09692578125,2.5777480602264404,0.2954230010509491,-0.11223500221967697
1771514693019338000,15.117337890625,1.8265529870986938,-0.01658499985933304,0.1041639968752861
1771514693039750000,15.13775,0.40014201402664185,0.017753999680280685,-0.15797999501228333
1771514693060157700,15.15815771484375,-0.5513539910316467,0.1957779973745346,-0.3426800072193146
1771514693080566800,15.17856689453125,-0.3487429916858673,0.0017819999484345317,-0.7023860216140747
1771514693100979700,15.198979736328125,0.30702000856399536,-0.428943008184433,-0.46785399317741394
1771514693121395200,15.219395263671874,0.1521729975938797,-0.8124340176582336,-0.025107000023126602
1771514693141810000,15.239809814453125,0.09699399769306183,-0.8671919703483582,0.1581369936466217
1771514693162217200,15.26021728515625,-0.03556999936699867,-0.3894909918308258,0.4334059953689575
1771514693182620700,15.28062060546875,0.548524022102356,-0.051777999848127365,0.5481380224227905
1771514693203025400,15.301025390625,1.4818170070648193,0.004021999891847372,0.41518399119377136
1771514693223432000,15.321431884765625,2.551600933074951,-0.3423660099506378,0.28718701004981995
1771514693243840300,15.34184033203125,1.4846769571304321,-0.5083990097045898,0.24742500483989716
1771514693264245800,15.362245849609375,0.21499599516391754,-0.451323002576828,0.02270900085568428
1771514693284652500,15.382652587890625,0.03036399930715561,-0.46989598870277405,-0.13649900257587433
1771514693305064200,15.403064208984375,0.1387919932603836,-0.8566259741783142,-0.2249930053949356
1771514693325477600,15.4234775390625,-0.128043994307518,-1.2363460063934326,-0.047506000846624374
1771514693345890800,15.443890869140626,-0.624796986579895,-1.1980479955673218,0.21752600371837616
1771514693366300400,15.464300537109375,-0.040720999240875244,-0.6907280087471008,0.1886650025844574
1771514693386707700,15.484707763671874,0.719057023525238,-0.12201199680566788,0.027884000912308693
1771514693407115800,15.50511572265625,1.8817139863967896,0.16525399684906006,0.1001880019903183
1771514693427523800,15.52552392578125,2.45257306098938,-0.15233799815177917,-0.19557000696659088
1771514693447933400,15.545933349609374,1.281285047531128,-0.3308199942111969,-0.4294550120830536
1771514693468347000,15.566346923828124,0.31535300612449646,-0.18273800611495972,-0.3760879933834076
1771514693488759800,15.586759765625,0.37770599126815796,0.12676399946212769,-0.4372130036354065
1771514693509170000,15.607169921875,0.7371760010719299,0.1294270008802414,-0.7147470116615295
1771514693529579800,15.627579833984376,0.5836219787597656,-0.11954300105571747,-0.8662649989128113
1771514693549990000,15.647989990234375,-0.2822830080986023,-0.17377300560474396,-0.5262470245361328
1771514693570400500,15.668400390625,-0.9884750247001648,0.13508200645446777,-0.223130002617836
1771514693590812400,15.6888125,-0.6998860239982605,0.34048300981521606,-0.2652539908885956
1771514693611223600,15.7092236328125,0.13459399342536926,0.42997899651527405,0.000012999999853491317
1771514693631634400,15.729634521484375,1.3526469469070435,0.28519999980926514,0.4436439871788025
1771514693652047600,15.750047607421875,1.6419769525527954,-0.3250899910926819,0.6036099791526794
1771514693672461600,15.770461669921875,1.6238640546798706,-0.06794299930334091,0.6220170259475708
1771514693692873500,15.79087353515625,1.366055965423584,-0.25976699590682983,0.08347000181674957
1771514693713286000,15.811285888671875,0.25822898745536804,-0.3313809931278229,-0.08940699696540833
1771514693733698800,15.83169873046875,-0.31020599603652954,-0.21160399913787842,0.19071300327777863
1771514693754114000,15.852114013671875,-0.09432700276374817,0.03846700116991997,0.5943470001220703
1771514693774527000,15.87252685546875,0.2668769955635071,0.20171700417995453,0.5921339988708496
1771514693794936300,15.892936279296874,0.9292070269584656,0.5227339863777161,0.44139599800109863
1771514693815343900,15.91334375,1.152353048324585,0.6648010015487671,-0.013639000244438648
1771514693835750000,15.93375,1.31837797164917,0.659151017665863,-0.12134800106287003
1771514693856155100,15.954155029296874,0.6974380016326904,-0.013791999779641628,-0.603859007358551
1771514693876561400,15.9745615234375,-0.504755973815918,-0.5156610012054443,-0.7581689953804016
1771514693896969700,15.9949697265625,-1.0721269845962524,-0.4230720102787018,-0.7897689938545227
1771514693917379300,16.01537939453125,-0.18913200497627258,-0.1569730043411255,-0.7753530144691467
1771514693937790000,16.0357900390625,1.3192509412765503,0.25986599922180176,-0.2395939975976944
1771514693958201600,16.05620166015625,2.9334449768066406,-0.07286900281906128,-0.07134000211954117
1771514693978612000,16.076612060546875,1.883234977722168,-0.5676869750022888,0.023649999871850014
1771514693999021000,16.09702099609375,0.022562000900506973,-0.6683030128479004,-0.08421400189399719
1771514694019429600,16.1174296875,-0.9341610074043274,-0.4814560115337372,-0.2655870020389557
1771514694039837700,16.137837646484375,-0.8706179857254028,-0.28452199697494507,-0.2538459897041321
1771514694060246300,16.158246337890624,0.1208299994468689,-0.32713600993156433,0.01196799986064434
1771514694080656100,16.17865625,1.1772600412368774,-0.17433300614356995,0.7214599847793579
1771514694101066500,16.19906640625,1.975517988204956,0.0067540002055466175,0.9568849802017212
1771514694121477600,16.2194775390625,1.8963810205459595,0.05910399928689003,0.5014809966087341
1771514694141887200,16.23988720703125,0.33746299147605896,0.24044500291347504,0.030393999069929123
1771514694162298600,16.260298583984376,-0.34741899371147156,0.6658689975738525,-0.1980140060186386
1771514694182709500,16.28070947265625,0.17362399399280548,0.8046929836273193,-0.3704800009727478
1771514694203115000,16.301114990234375,0.772113025188446,0.5960180163383484,-0.5509729981422424
1771514694223521800,16.321521728515624,0.7654110193252563,0.2261970043182373,-0.45134401321411133
1771514694243930000,16.34193017578125,-0.08098100125789642,-0.239206001162529,-0.6141110062599182
1771514694264335400,16.36233544921875,-1.6945610046386719,-0.32694798707962036,-0.45148301124572754
1771514694284742400,16.382742431640626,-1.9188549518585205,0.2773529887199402,0.25687500834465027
1771514694305152000,16.403152099609375,1.1055959463119507,0.41831299662590027,0.1146169975399971
1771514694325560800,16.423560791015625,2.436669111251831,0.15014800429344177,-0.13734500110149384
1771514694345971500,16.443971435546874,3.4249629974365234,0.6040989756584167,0.784500002861023
1771514694366380000,16.464380126953124,3.1532130241394043,-0.5858179926872253,-0.1571819931268692
1771514694386788000,16.4847880859375,0.4358370006084442,-0.9227449893951416,-0.2219890058040619
1771514694407196200,16.505196044921874,-1.160228967666626,-1.0342979431152344,0.12864899635314941
1771514694427597800,16.525597900390625,-0.42102399468421936,-0.9274299740791321,0.39785298705101013
1771514694447997700,16.545997802734377,0.5312790274620056,-0.46070098876953125,0.7488120198249817
1771514694468401400,16.5664013671875,2.1018478870391846,-0.3573560118675232,0.6079480051994324
1771514694488808400,16.586808349609374,1.1853569746017456,-0.580111026763916,0.38812801241874695
1771514694509215200,16.60721533203125,-1.3726630210876465,-0.10451599955558777,0.400287002325058
1771514694529625600,16.62762548828125,-1.7596169710159302,1.4766709804534912,0.4884530007839203
1771514694550038300,16.648038330078126,0.6683940291404724,1.5418319702148438,-0.5801730155944824
1771514694570447400,16.668447265625,1.1711469888687134,1.274662971496582,-0.5349680185317993
1771514694590856400,16.6888564453125,1.0591249465942383,0.847599983215332,0.35376301407814026
1771514694611265300,16.709265380859375,3.466909885406494,1.174407958984375,0.7836869955062866
1771514694631673900,16.729673828125,3.624769926071167,0.08310600370168686,-0.48879098892211914
1771514694652080400,16.750080322265624,-0.45298299193382263,0.042465001344680786,-0.09376999735832214
1771514694672485400,16.7704853515625,-2.1148829460144043,0.23518499732017517,-0.013993999920785427
1771514694692891400,16.790891357421874,-1.7531429529190063,0.9820640087127686,-0.10500500351190567
1771514694713298400,16.81129833984375,-0.4920690059661865,1.7089990377426147,-0.21564200520515442
1771514694733709800,16.831709716796876,1.6297849416732788,1.7529419660568237,-0.1647689938545227
1771514694754122000,16.8521220703125,2.453216075897217,1.3994359970092773,-0.11848899722099304
1771514694774530300,16.8725302734375,0.9115080237388611,1.2523189783096313,0.06255099922418594
1771514694794939000,16.89293896484375,-0.6996729969978333,1.265673041343689,-0.15249399840831757
1771514694815350300,16.913350341796875,-1.3532589673995972,1.097864031791687,-0.3834860026836395
1771514694835764000,16.933763916015625,-0.7350149750709534,0.8783360123634338,-0.1156580001115799
1771514694856176000,16.954176025390623,1.7870630025863647,0.3202269971370697,0.02161099947988987
1771514694876586200,16.974586181640625,1.7319719791412354,-0.7412130236625671,-0.014034999534487724
1771514694896996600,16.99499658203125,0.0741410031914711,-0.8879759907722473,0.39476001262664795
1771514694917406200,17.01540625,-0.6406509876251221,-1.3974529504776,0.02315099909901619
1771514694937815600,17.035815673828125,-0.632079005241394,-1.1479099988937378,0.26025301218032837
1771514694958224000,17.056223876953126,0.6841819882392883,-1.0959450006484985,0.5158320069313049
1771514694978634000,17.076634033203124,2.338563919067383,-1.041295051574707,0.6145340204238892
1771514694999046400,17.09704638671875,2.6668848991394043,-0.852853000164032,0.5479030013084412
1771514695019461400,17.11746142578125,1.5728360414505005,-0.42107701301574707,0.3220199942588806
1771514695039874800,17.137874755859375,0.20528799295425415,-0.21790100634098053,-0.20115800201892853
1771514695060286200,17.1582861328125,-1.236184000968933,-0.2538830041885376,-0.4480629861354828
1771514695080695300,17.1786953125,-1.551906943321228,0.004815999884158373,-0.0859299972653389
1771514695101099800,17.199099853515627,0.05081700161099434,0.3917739987373352,0.08926499634981155
1771514695121505000,17.219505126953123,2.2480759620666504,0.5956839919090271,0.38719600439071655
1771514695141911600,17.23991162109375,2.7046360969543457,-0.15808899700641632,0.3119109869003296
1771514695162321000,17.26032080078125,1.416435956954956,-0.40220099687576294,0.3883259892463684
1771514695182733000,17.280733154296875,-0.3422960042953491,-0.3263849914073944,0.1914059966802597
1771514695203145200,17.301145263671874,-1.6302560567855835,-0.3001739978790283,0.050787001848220825
1771514695223559400,17.321559326171876,-2.1187679767608643,-0.24453699588775635,0.3926140069961548
1771514695243972600,17.34197265625,-0.8303560018539429,-0.10152199864387512,0.5715180039405823
1771514695264381700,17.362381591796876,1.4783259630203247,-0.1967879980802536,0.16497500240802765
1771514695284789200,17.382789306640625,2.5367579460144043,-0.38484901189804077,-0.20355099439620972
1771514695305194000,17.403194091796873,1.8598239421844482,-0.22330400347709656,-0.5154479742050171
1771514695325597000,17.423596923828125,0.860817015171051,0.33519798517227173,-0.6831430196762085
1771514695346004700,17.444004638671874,0.9094460010528564,0.985692024230957,-1.2175209522247314
1771514695366210000,17.4642099609375,1.3151140213012695,1.0891430377960205,-1.5871249437332153
1771514695376518100,17.47451806640625,1.252166986465454,0.7660890221595764,-1.6589670181274414
1771514695397030700,17.49503076171875,0.15339699387550354,0.13174599409103394,-1.2571150064468384
1771514695417441300,17.515441162109376,-0.646772027015686,-0.13041700422763824,-1.1217269897460938
1771514695437853200,17.535853271484374,-0.8404420018196106,0.19670900702476501,-0.5747519731521606
1771514695458262800,17.5562626953125,0.3052400052547455,0.22587500512599945,-0.16240699589252472
1771514695478669600,17.576669677734376,1.6611779928207397,-0.511913001537323,0.023233000189065933
1771514695499075800,17.597075927734377,0.5191760063171387,-1.052163004875183,0.44171398878097534
1771514695519481600,17.617481689453125,-0.5032389760017395,-0.958774983882904,0.7746769785881042
1771514695539887400,17.637887451171874,-0.12106399983167648,-0.47819700837135315,0.4792119860649109
1771514695560293000,17.658293212890626,0.7022920250892639,0.026311000809073448,0.5115770101547241
1771514695580698000,17.678697998046875,2.152523994445801,-0.05863799899816513,0.6268879771232605
1771514695601106400,17.6991064453125,1.9135440587997437,-0.634555995464325,0.1561869978904724
1771514695621517800,17.719517822265626,0.06775499880313873,-0.6466630101203918,-0.10958900302648544
1771514695641925400,17.73992529296875,-1.5693529844284058,-0.06105500087141991,-0.4036270081996918
1771514695662331600,17.76033154296875,-0.8903040289878845,0.5546659827232361,-0.19584299623966217
1771514695682740000,17.780739990234373,1.199273943901062,0.6366559863090515,-0.09770499914884567
1771514695703148800,17.801148681640626,1.9185420274734497,0.17343999445438385,-0.09869100153446198
1771514695723556900,17.821556884765624,0.8376659750938416,-0.018269000574946404,-0.11585400253534317
1771514695743966200,17.84196630859375,-0.32905998826026917,0.540805995464325,-0.1912429928779602
1771514695764374000,17.8623740234375,0.977649986743927,1.0635279417037964,-0.28796499967575073
1771514695784779800,17.88277978515625,2.793148994445801,0.5752900242805481,-0.6971949934959412
1771514695805185300,17.903185302734375,2.4404280185699463,-0.5278229713439941,-0.7174019813537598
1771514695825589800,17.92358984375,-0.09350399672985077,-0.8519750237464905,-0.21522100269794464
1771514695845995300,17.943995361328124,-1.7179440259933472,-0.6479120254516602,-0.087567999958992
1771514695866404900,17.96440478515625,-1.884842038154602,0.09618599712848663,0.07049600034952164
1771514695886816000,17.98481591796875,0.26551300287246704,0.3433449864387512,0.09357000142335892
1771514695907224300,18.005224365234376,1.7537319660186768,0.023406999185681343,0.1898380070924759
1771514695927631600,18.025631591796873,1.811668038368225,-0.21420499682426453,0.7110779881477356
1771514695948038100,18.0460380859375,0.14858800172805786,-0.1630299985408783,0.30316200852394104
1771514695968447000,18.066447021484375,-1.3923059701919556,0.3242129981517792,-0.07230299711227417
1771514695988855300,18.086855224609376,-0.4257200062274933,0.8593689799308777,0.08313900232315063
1771514696009257500,18.107257568359376,2.1251869201660156,0.7529299855232239,-0.22346000373363495
1771514696029661000,18.127660888671876,2.790087938308716,0.20745399594306946,-0.3016110062599182
1771514696050068700,18.14806884765625,1.2011059522628784,-0.32645899057388306,-0.19864900410175323
1771514696070477600,18.1684775390625,-0.6093689799308777,-0.4731230139732361,-0.44712600111961365
1771514696090884000,18.188884033203124,-1.3641159534454346,-0.3307340145111084,-0.6285409927368164
1771514696111291100,18.209291015625,-0.5638650059700012,-0.29266801476478577,-0.33384600281715393
1771514696131699200,18.22969921875,0.8007670044898987,-0.4312160015106201,0.07213699817657471
1771514696152104400,18.2501044921875,1.6138800382614136,-0.4134730100631714,0.8500000238418579
1771514696172511200,18.27051123046875,2.5945849418640137,-0.4274260103702545,0.9613360166549683
1771514696192917200,18.290917236328124,2.261707067489624,-0.601947009563446,0.6214939951896667
1771514696213323300,18.3113232421875,0.8544309735298157,-0.7452120184898376,0.23326599597930908
1771514696233730800,18.331730712890625,-0.612555980682373,-0.8749750256538391,-0.2926740050315857
1771514696254139100,18.35213916015625,-1.309237003326416,-0.41007599234580994,-0.07650399953126907
1771514696274550000,18.372550048828124,0.11399299651384354,0.1832980066537857,-0.07478699833154678
1771514696294956500,18.39295654296875,0.3163340091705322,0.3190799951553345,-0.49383699893951416
1771514696315363800,18.41336376953125,-0.06243300065398216,0.7325289845466614,-0.05251400172710419
1771514696335773400,18.4337734375,-0.15694500505924225,1.0055079460144043,-0.1769849956035614
1771514696356183300,18.454183349609377,-0.3915350139141083,1.6506140232086182,-0.5902389883995056
1771514696376595700,18.474595703125,-0.7369070053100586,2.492105007171631,-1.0910359621047974
1771514696397010000,18.495010009765625,1.0627989768981934,2.9058279991149902,-1.3536889553070068
1771514696417425700,18.51542578125,4.1538190841674805,2.196074962615967,-1.4697959423065186
1771514696437836300,18.535836181640626,5.673878192901611,0.5359539985656738,-1.411120057106018
1771514696458245000,18.5562451171875,2.7877070903778076,-0.5956609845161438,-1.0757620334625244
1771514696478657800,18.57665771484375,-0.28352001309394836,-1.0869890451431274,-0.7426180243492126
1771514696499070500,18.597070556640624,-1.747359037399292,-1.5468720197677612,-0.4139840006828308
1771514696519481300,18.6174814453125,-2.992893934249878,-1.8365590572357178,0.33498498797416687
1771514696539890000,18.637889892578126,-3.5866549015045166,-2.2155160903930664,1.2938380241394043
1771514696560300800,18.65830078125,-4.099459171295166,-2.3866889476776123,1.6923129558563232
1771514696580715800,18.6787158203125,-4.744731903076172,-2.028799057006836,1.631350040435791
1771514696601131300,18.69913134765625,-4.616144180297852,-0.8566830158233643,2.017538070678711
1771514696621544000,18.7195439453125,1.4421019554138184,1.0713030099868774,3.390144109725952
1771514696641954800,18.739954833984374,11.603670120239258,-0.1023389995098114,3.0485379695892334
1771514696662365700,18.76036572265625,12.006020545959473,-1.6396039724349976,1.800737977027893
1771514696682776000,18.780776123046873,4.084226131439209,-1.0338280200958252,1.1098300218582153
1771514696703186200,18.801186279296875,-2.6726438999176025,0.034526001662015915,-0.17207400500774384
1771514696723597000,18.82159716796875,-4.421889781951904,0.9081670045852661,-1.1433429718017578
1771514696744007400,18.84200732421875,-1.9778599739074707,1.2365570068359375,-1.335621953010559
1771514696764420600,18.862420654296876,1.6759510040283203,0.8811759948730469,-1.0988940000534058
1771514696784833500,18.88283349609375,2.8906409740448,0.5564650297164917,-0.2841919958591461
1771514696805242600,18.90324267578125,1.7777099609375,0.4436759948730469,-0.2197750061750412
1771514696825650700,18.923650634765625,0.33481699228286743,0.5977429747581482,-1.221848964691162
1771514696846058500,18.94405859375,-0.7500920295715332,0.586355984210968,-1.7305330038070679
1771514696866470700,18.964470703125,-1.6049729585647583,0.29556599259376526,-1.6150469779968262
1771514696886886000,18.984885986328123,-1.149507999420166,-0.07716599851846695,-1.2333810329437256
1771514696907301400,19.00530126953125,-0.8152049779891968,-0.23065899312496185,-0.8834279775619507
1771514696927713500,19.025713623046876,0.15681800246238708,-0.19654099643230438,-0.6576679944992065
1771514696948125200,19.046125244140626,1.4483139514923096,-0.505499005317688,0.013341999612748623
1771514696968536000,19.0665361328125,2.3468339443206787,-0.8073670268058777,0.21876800060272217
1771514696988944600,19.086944580078125,2.027137041091919,-1.015720009803772,0.2627109885215759
1771514697009355000,19.10735498046875,0.7556710243225098,-0.9119020104408264,0.4679799973964691
1771514697029765600,19.127765625,0.3703460097312927,-0.9559230208396912,0.3642770051956177
1771514697050176000,19.148176025390626,0.8007439970970154,-0.8554440140724182,0.27397000789642334
1771514697070584800,19.168584716796875,0.9259170293807983,-0.8081070184707642,0.07788699865341187
1771514697090991600,19.18899169921875,0.777692973613739,-0.42959100008010864,0.1445309966802597
1771514697111401000,19.20940087890625,0.9160379767417908,0.0593860000371933,0.2469400018453598
1771514697131816200,19.229816162109376,1.3058209419250488,0.31830400228500366,0.4558410048484802
1771514697152235500,19.250235595703124,1.2288450002670288,0.10536599904298782,0.20926299691200256
1771514697172651500,19.270651611328127,0.19056600332260132,-0.2459229975938797,0.12137199938297272
1771514697193064200,19.291064208984373,-0.9511849880218506,-0.29511600732803345,-0.03615099936723709
1771514697213475000,19.31147509765625,-1.0847729444503784,0.04928100109100342,0.1576550006866455
1771514697233885000,19.331885009765625,0.1657319962978363,0.4042370021343231,0.4860079884529114
1771514697254293000,19.35229296875,2.319385051727295,0.10708300024271011,0.6771889925003052
1771514697274698800,19.37269873046875,1.9564870595932007,-0.8109620213508606,0.44643300771713257
1771514697295105300,19.393105224609375,-0.14426299929618835,-0.7976430058479309,0.4105600118637085
1771514697315509800,19.413509765625,-1.0392329692840576,-0.12818999588489532,0.2174070030450821
1771514697335913700,19.433913818359375,0.6551399827003479,0.3107739984989166,-0.10650599747896194
1771514697356319000,19.454319091796876,2.0687921047210693,-0.09734199941158295,-0.3804149925708771
1771514697376726500,19.4747265625,1.610653042793274,-0.5015479922294617,-0.4844120144844055
1771514697397139000,19.495138916015627,1.1387109756469727,-0.20885899662971497,-0.519353985786438
1771514697417555000,19.515554931640626,0.6202859878540039,0.05136600136756897,-0.9880229830741882
1771514697437972200,19.53597216796875,0.07322899997234344,0.20708699524402618,-1.0142840147018433
1771514697458385000,19.556385009765624,-0.03171199932694435,0.45468300580978394,-0.4946709871292114
1771514697478792200,19.576792236328124,1.0686229467391968,0.4035309851169586,-0.10977700352668762
1771514697499199000,19.597198974609373,1.058089017868042,-0.34084200859069824,0.02033800072968006
1771514697519606300,19.617606201171874,-0.16827799379825592,-0.6516789793968201,0.4676479995250702
1771514697540013300,19.638013427734375,-1.0877649784088135,-0.3738749921321869,0.5490970015525818
1771514697560420900,19.6584208984375,-0.2758600115776062,0.06138100102543831,0.45798900723457336
1771514697580827600,19.67882763671875,0.8132510185241699,0.1571190059185028,0.12810400128364563
1771514697601233400,19.6992333984375,1.5671420097351074,-0.05986199900507927,0.354653000831604
1771514697621637600,19.7196376953125,1.8647119998931885,-0.21232199668884277,0.3031879961490631
1771514697642045400,19.74004541015625,0.9112489819526672,-0.11274799704551697,-0.31276199221611023
1771514697662455600,19.76045556640625,-0.21055999398231506,0.19121700525283813,-0.8409479856491089
1771514697682862300,19.7808623046875,0.0906360000371933,0.6891760230064392,-0.5830230116844177
1771514697703272000,19.80127197265625,1.510761022567749,0.4388920068740845,-0.600475013256073
1771514697723683600,19.82168359375,1.6035000085830688,0.03750300034880638,-0.2672860026359558
1771514697744096800,19.8420966796875,0.3480919897556305,-0.26583099365234375,-0.27959099411964417
1771514697764507600,19.862507568359376,-0.37329399585723877,-0.17420899868011475,-0.10133899748325348
1771514697784915500,19.88291552734375,-0.801285982131958,0.07024099677801132,-0.07168100029230118
1771514697805326000,19.903326171875,-0.24948400259017944,0.3085879981517792,0.023528000339865685
1771514697825737200,19.9237373046875,0.6600599884986877,0.24462099373340607,0.25161001086235046
1771514697846147800,19.94414794921875,2.375715970993042,-0.12770399451255798,0.42973798513412476
1771514697866554400,19.964554443359376,1.3500490188598633,-0.3697899878025055,0.3179520070552826
1771514697886960600,19.984960693359376,-0.21062099933624268,-0.26156601309776306,0.14737099409103394
1771514697907372000,20.0053720703125,-1.172320008277893,0.2204360067844391,-0.03610999882221222
1771514697927783000,20.025782958984376,0.2557680010795593,0.4558190107345581,-0.02742999978363514
1771514697948189700,20.046189697265625,1.4991790056228638,-0.14306700229644775,-0.3837679922580719
1771514697968593000,20.066593017578125,1.3159979581832886,-0.37560001015663147,0.276293009519577
1771514697988995300,20.086995361328125,0.23003000020980835,-0.5485460162162781,-0.10359200090169907
1771514698009398000,20.10739794921875,-0.3132300078868866,0.0003760000108741224,-0.2394620031118393
1771514698029800700,20.12780078125,0.4775199890136719,0.12063799798488617,-0.24146699905395508
1771514698050203000,20.148202880859376,1.5834139585494995,-0.0244510006159544,-0.1233230009675026
1771514698070605600,20.16860546875,1.7406330108642578,-0.2563210129737854,-0.05590499937534332
1771514698091007700,20.1890078125,0.8929420113563538,-0.3166770040988922,-0.15526999533176422
1771514698111410400,20.209410400390624,-0.179640993475914,-0.16626499593257904,-0.18083900213241577
1771514698131813000,20.229813232421876,-0.13984499871730804,0.03151499852538109,-0.34661000967025757
1771514698152217300,20.25021728515625,0.971701979637146,0.3220829963684082,-0.31189200282096863
1771514698172624600,20.270624755859377,1.727702021598816,0.4726420044898987,-0.1263200044631958
1771514698193032700,20.29103271484375,1.5348520278930664,0.18189099431037903,-0.42413198947906494
1771514698213438700,20.311438720703126,-0.2954390048980713,0.07611300051212311,-0.22392599284648895
1771514698233842200,20.33184228515625,-1.350113034248352,0.16617800295352936,-0.061824001371860504
1771514698254244600,20.35224462890625,-0.6119840145111084,0.49408799409866333,-0.067951999604702
1771514698274647000,20.37264697265625,1.1473770141601562,0.6806579828262329,0.1827320009469986
1771514698295049700,20.3930498046875,2.291740894317627,0.22669899463653564,0.4063419997692108
1771514698315450600,20.41345068359375,1.9504879713058472,-0.34376901388168335,0.4708319902420044
1771514698335852300,20.433852294921873,0.41085800528526306,-0.5923100113868713,0.05256199836730957
1771514698356255700,20.454255859375,-0.9976369738578796,-0.5622730255126953,-0.04215199872851372
1771514698376658200,20.474658203125,-0.9726669788360596,-0.49923598766326904,0.15126599371433258
1771514698397059300,20.495059326171877,0.43380799889564514,-0.2927890121936798,0.40380001068115234
1771514698417460000,20.5154599609375,2.5651509761810303,-0.11087200045585632,0.6499199867248535
1771514698437862100,20.535862060546876,3.3807671070098877,-0.29371699690818787,0.5324040055274963
1771514698458266000,20.55626611328125,1.033974051475525,-0.4482409954071045,0.10563000291585922
1771514698478670300,20.57667041015625,-1.3397979736328125,-0.40032899379730225,-0.047419000416994095
1771514698499073500,20.597073486328124,-2.6608519554138184,-0.3521459996700287,-0.14128300547599792
1771514698519477000,20.61747705078125,-2.149799108505249,0.008640999905765057,0.12400200217962265
1771514698539878700,20.637878662109376,0.5005699992179871,0.47699499130249023,0.5735300183296204
1771514698560278800,20.65827880859375,3.2132880687713623,0.3490929901599884,0.7289149761199951
1771514698580681700,20.678681640625,3.4378559589385986,0.18215900659561157,0.6016650199890137
1771514698601087200,20.699087158203124,1.8639910221099854,-0.056703001260757446,0.01676199957728386
1771514698621492500,20.719492431640624,-0.20304100215435028,-0.20885400474071503,-0.8414469957351685
1771514698641899000,20.73989892578125,-2.004232883453369,-0.03430800139904022,-1.1648930311203003
1771514698662308400,20.760308349609375,-1.1339709758758545,0.42283400893211365,-0.9096829891204834
1771514698682718200,20.78071826171875,1.6428229808807373,0.3337920010089874,-0.49176299571990967
1771514698703124700,20.801124755859377,3.375938892364502,-0.17641399800777435,-0.28189700841903687
1771514698723532000,20.821531982421874,2.4296250343322754,-0.12809599936008453,0.14305299520492554
1771514698743940600,20.841940673828127,0.7254160046577454,0.10690200328826904,-0.1804639995098114
1771514698764344800,20.8623447265625,-1.0467040538787842,0.16415399312973022,-0.5429919958114624
1771514698784751600,20.882751708984376,-1.4702359437942505,0.32605499029159546,-0.17524099349975586
1771514698805156400,20.90315625,-0.3118169903755188,-0.08721700310707092,0.02922699972987175
1771514698825560000,20.92356005859375,0.45122799277305603,-0.2769699990749359,0.48236799240112305
1771514698845965000,20.943965087890625,1.7098569869995117,-0.28029999136924744,1.0985039472579956
1771514698866366000,20.964365966796876,2.5003609657287598,-0.42902201414108276,1.0980160236358643
1771514698886766000,20.98476611328125,0.5970969796180725,-0.7749810218811035,0.347678005695343
1771514698907168800,21.005168701171876,-1.6258399486541748,-0.3614659905433655,0.14216899871826172
1771514698927571200,21.0255712890625,-0.32767701148986816,0.4336380064487457,0.18371200561523438
1771514698947967200,21.04596728515625,2.6022419929504395,0.5027710199356079,-0.09525000303983688
1771514698968360700,21.066360595703124,2.5482499599456787,0.09710200130939484,-0.25613999366760254
1771514698988757800,21.0867578125,0.9414420127868652,0.3580400049686432,0.0805630013346672
1771514699009158700,21.10715869140625,0.4816569983959198,0.730650007724762,-0.19742999970912933
1771514699029559000,21.12755908203125,-0.9034479856491089,0.5024899840354919,-0.8463799953460693
1771514699049958100,21.147958251953124,-2.515194892883301,0.7138649821281433,-0.4768500030040741
1771514699070357200,21.168357177734375,-1.254520058631897,1.2388060092926025,0.08184400200843811
1771514699090755000,21.188755126953126,3.075066089630127,1.866371989250183,0.5089769959449768
1771514699111153700,21.209153564453125,5.553940773010254,1.277312994003296,0.2338320016860962
1771514699131552500,21.229552490234376,4.924260139465332,0.5338919758796692,0.20013199746608734
1771514699151947500,21.249947509765626,1.2771250009536743,-0.8806509971618652,-0.9217659831047058
1771514699172343800,21.27034375,-3.3387069702148438,-1.2250009775161743,-1.0609970092773438
1771514699192742400,21.290742431640624,-5.218357086181641,-1.0032240152359009,-0.791450023651123
1771514699213141800,21.311141845703126,-4.380239009857178,-0.5955619812011719,-0.40108200907707214
1771514699233540400,21.331540283203125,-1.063981056213379,0.4100320041179657,0.5897979736328125
1771514699253938700,21.351938720703124,2.0903680324554443,0.913362979888916,0.9201419949531555
1771514699274339300,21.37233935546875,4.352013111114502,0.9883440136909485,1.024940013885498
1771514699294739700,21.39273974609375,3.9762520790100098,0.5934529900550842,0.3498310148715973
1771514699315140000,21.41314013671875,0.02571900002658367,0.5566089749336243,-0.1438409984111786
1771514699335540000,21.4335400390625,-2.542530059814453,0.7170670032501221,-0.901199996471405
1771514699355939600,21.453939697265625,-2.5089640617370605,1.5898089408874512,-1.0313949584960938
1771514699376339200,21.474339111328124,2.660446882247925,2.633435010910034,-0.8834859728813171
1771514699396737000,21.494737060546875,10.2985258102417,2.118372917175293,-0.14788499474525452
1771514699417134600,21.515134521484374,8.585090637207031,-1.0717049837112427,-1.096392035484314
1771514699437534200,21.5355341796875,0.08701299875974655,-1.4904229640960693,0.2800999879837036
1771514699457935000,21.55593505859375,-4.880077838897705,-1.9374419450759888,0.49154001474380493
1771514699478333400,21.57633349609375,-5.368927955627441,-2.216296911239624,-0.12393300235271454
1771514699498732300,21.596732177734374,-5.2524309158325195,-1.575963020324707,0.038506001234054565
1771514699519132000,21.6171318359375,-5.358684062957764,-1.1394339799880981,0.6262369751930237
1771514699539530800,21.63753076171875,-4.791644096374512,-1.176468014717102,0.8538439869880676
1771514699559930600,21.6579306640625,-3.0580708980560303,-0.6253319978713989,0.6849200129508972
1771514699580327700,21.67832763671875,2.44496488571167,0.9592519998550415,0.8851519823074341
1771514699600727600,21.6987275390625,10.034008979797363,1.1630430221557617,1.5306400060653687
1771514699621131000,21.719131103515625,8.893985748291016,-0.5968480110168457,0.9402469992637634
1771514699641534500,21.739534423828125,2.5148630142211914,0.3990289866924286,1.0223239660263062
1771514699661940000,21.75993994140625,0.549468994140625,1.482632040977478,-0.41888898611068726
1771514699682348300,21.780348388671875,1.232066035270691,2.0471649169921875,-1.6265980005264282
1771514699702762000,21.800761962890626,1.3394379615783691,1.8140250444412231,-1.4521520137786865
1771514699723175700,21.82117578125,1.1841599941253662,0.42375800013542175,-1.4764260053634644
1771514699743587000,21.841587158203126,-0.35596299171447754,-0.05358099937438965,-0.6506360173225403
1771514699763997000,21.861996826171875,-2.154639959335327,-0.4582970142364502,-0.2935419976711273
1771514699784405200,21.8824052734375,-3.104243040084839,-0.4032280147075653,-0.2690280079841614
1771514699804812000,21.90281201171875,-2.5854079723358154,0.18759800493717194,-0.1958789974451065
1771514699825214200,21.923214111328125,-0.06830699741840363,0.8314859867095947,-0.01817299984395504
1771514699845613800,21.94361376953125,3.4206340312957764,0.4848029911518097,0.3907409906387329
1771514699866013200,21.96401318359375,3.547844886779785,-0.4122700095176697,0.6759880185127258
1771514699886412800,21.984412841796875,0.3994179964065552,-0.7664790153503418,0.5020859837532043
1771514699906814000,22.00481396484375,-2.128741979598999,-0.5867509841918945,0.06679999828338623
1771514699927214600,22.025214599609374,-2.3485660552978516,-0.471684992313385,-0.07332099974155426
1771514699947615700,22.04561572265625,-0.8626660108566284,-0.26770299673080444,0.1568489968776703
1771514699968019700,22.066019775390625,1.328673005104065,-0.2722119987010956,0.50559401512146
1771514699988423000,22.0864228515625,3.170037031173706,0.20502600073814392,0.9541339874267578
1771514700008826000,22.106826171875,3.5278139114379883,0.5959569811820984,0.8821529746055603
1771514700029232600,22.127232666015626,1.8319950103759766,0.9762409925460815,0.6727880239486694
1771514700049639400,22.147639404296875,0.9990919828414917,1.4817030429840088,0.7016950249671936
1771514700070044200,22.168044189453123,0.49904000759124756,0.7184029817581177,-0.16044600307941437
1771514700090445800,22.18844580078125,-0.5572249889373779,0.1752060055732727,-0.38568800687789917
1771514700110840600,22.208840576171873,-0.2425999939441681,-0.6232789754867554,-0.7013800144195557
1771514700131234000,22.229234130859375,-0.3141059875488281,-1.0704940557479858,-0.6338319778442383
1771514700151628800,22.24962890625,-0.2682980000972748,-0.9886490106582642,-0.5755580067634583
1771514700172023300,22.270023193359375,0.6207680106163025,-1.0965579748153687,-0.5855129957199097
1771514700192422000,22.290421875,0.8896070122718811,-1.150285005569458,-0.2857989966869354
1771514700212825000,22.3108251953125,0.3592109978199005,-1.092926025390625,0.07145799696445465
1771514700233227300,22.331227294921874,-0.8234919905662537,-0.7820749878883362,-0.06349699944257736
1771514700253628400,22.35162841796875,-1.4903099536895752,-0.2142000049352646,0.08151199668645859
1771514700274030000,22.372030029296877,-0.7034800052642822,0.3206019997596741,0.2170179933309555
1771514700294431000,22.392430908203124,3.2298591136932373,1.4217740297317505,1.1181960105895996
1771514700314833000,22.4128330078125,6.6471757888793945,0.5368239879608154,0.688077986240387
1771514700335236900,22.43323681640625,5.111934185028076,0.9490879774093628,0.2926430106163025
1771514700355644200,22.45364404296875,2.027071952819824,0.7178630232810974,-0.33977699279785156
1771514700376053200,22.47405322265625,-0.8311259746551514,0.8457369804382324,-0.9796720147132874
1771514700396460800,22.494460693359375,-2.8508670330047607,0.9427189826965332,-1.5191019773483276
1771514700416865800,22.51486572265625,-3.596451997756958,0.8979960083961487,-1.5902179479599
1771514700437268500,22.5352685546875,-2.3483939170837402,1.0736099481582642,-1.1618479490280151
1771514700457675300,22.55567529296875,-0.06313999742269516,1.3701289892196655,-0.19488400220870972
1771514700478081800,22.576081787109374,2.311785936355591,0.7888969779014587,0.5593760013580322
1771514700498486000,22.596486083984374,2.829533100128174,0.13679200410842896,1.2875510454177856
1771514700518890500,22.616890380859374,2.412015914916992,0.32085099816322327,1.503167986869812
1771514700539290600,22.63729052734375,2.4744908809661865,0.0530100017786026,0.6842849850654602
1771514700559687400,22.6576875,-0.2438870072364807,-0.9264050126075745,-0.18309900164604187
1771514700580087000,22.678087158203127,-3.117121934890747,-1.6158210039138794,-0.04697199910879135
1771514700600491000,22.698490966796875,-4.218846797943115,-2.0299859046936035,-0.01435799989849329
1771514700620892400,22.718892333984375,-3.570725917816162,-1.9794429540634155,0.008270000107586384
1771514700641293800,22.7392939453125,-0.7180699706077576,-1.6012710332870483,0.7508220076560974
1771514700661698000,22.759697998046875,2.687455892562866,-1.7858439683914185,1.7592459917068481
1771514700682101500,22.7801015625,4.80734395980835,-1.8933260440826416,2.3600950241088867
1771514700702507500,22.800507568359375,3.268126964569092,-1.0739359855651855,2.130323886871338
1771514700722915000,22.8209150390625,0.2749119997024536,-0.5372700095176697,0.8123409748077393
1771514700743322600,22.841322509765625,-2.2925989627838135,0.4003480076789856,0.0736590027809143
1771514700763729000,22.86172900390625,-2.179460048675537,1.5472140312194824,-0.19586999714374542
1771514700784132900,22.8821328125,3.2449018955230713,2.9634580612182617,0.39792200922966003
1771514700804537600,22.90253759765625,7.804490089416504,1.792565941810608,-0.8723620176315308
1771514700824943000,22.922943115234375,4.871977806091309,1.282114028930664,-0.6990810036659241
1771514700845349400,22.943349365234376,0.19851000607013702,0.4969080090522766,-0.930042028427124
1771514700865754600,22.963754638671876,-3.1071200370788574,0.4416959881782532,-1.534175992012024
1771514700886157000,22.984156982421876,-3.555759906768799,0.39972999691963196,-1.7012449502944946
1771514700906559500,23.0045595703125,-2.296396017074585,-0.20548400282859802,-1.2288659811019897
1771514700926965200,23.02496533203125,-1.272326946258545,-1.0369739532470703,-0.34534600377082825
1771514700947370500,23.04537060546875,-0.5313770174980164,-1.3409459590911865,0.5677970051765442
1771514700967773000,23.06577294921875,-0.10770200192928314,-1.1424529552459717,0.9899659752845764
1771514700988176600,23.0861767578125,1.1414400339126587,-0.45429500937461853,0.8640919923782349
1771514701008580600,23.10658056640625,3.19229793548584,-0.3587389886379242,0.7087410092353821
1771514701028984600,23.126984619140625,3.0424349308013916,-1.0409899950027466,-0.11848899722099304
1771514701049391600,23.1473916015625,-0.0021150000393390656,-0.9367790222167969,-0.1868000030517578
1771514701069797600,23.167797607421875,-1.6404809951782227,0.05258600041270256,-0.2584410011768341
1771514701090203400,23.188203369140624,0.3189789950847626,1.0349129438400269,-0.5083979964256287
1771514701110611500,23.208611572265625,3.1519649028778076,1.351307988166809,-0.601885974407196
1771514701131017500,23.229017578125,3.2971270084381104,0.5615699887275696,-0.8110470175743103
1771514701151421200,23.249421142578125,0.320933997631073,0.11228200048208237,-0.42702800035476685
1771514701171824400,23.269824462890625,-2.418360948562622,0.16382600367069244,-0.6357020139694214
1771514701192232000,23.29023193359375,-3.1796720027923584,0.6054440140724182,-1.2078770399093628
1771514701212638200,23.31063818359375,-2.3602941036224365,1.2278000116348267,-1.3096469640731812
1771514701233038800,23.331038818359374,-0.12705600261688232,1.6240839958190918,-0.7427650094032288
1771514701253439200,23.351439208984374,3.4055309295654297,1.5309330224990845,-0.15304499864578247
1771514701273843200,23.37184326171875,5.310794830322266,0.8537240028381348,0.10041800141334534
1771514701294248000,23.392248046875,2.7348549365997314,0.3091849982738495,-0.10054399818181992
1771514701314649000,23.412649169921874,-0.956279993057251,-0.025848999619483948,-0.6479679942131042
1771514701335049500,23.433049560546873,-2.5642409324645996,-0.5268579721450806,-0.6992200016975403
1771514701355451000,23.453450927734377,-2.004539966583252,-1.2057830095291138,-0.14396800100803375
1771514701375851500,23.4738515625,0.10573600232601166,-2.2457571029663086,0.38402900099754333
1771514701396253400,23.49425341796875,0.44368499517440796,-2.9282610416412354,1.4362419843673706
1771514701416656400,23.514656494140624,0.02082500047981739,-3.0720949172973633,2.3573288917541504
1771514701437059800,23.535059814453124,-0.4888249933719635,-2.6092939376831055,2.5157430171966553
1771514701457462300,23.555462158203124,-0.8904749751091003,-1.8747429847717285,1.818655014038086
1771514701477862400,23.5758623046875,-1.5822709798812866,-1.034561038017273,1.6167689561843872
1771514701498261000,23.596260986328126,-0.9515969753265381,-0.5612549781799316,2.110311985015869
1771514701518662700,23.61666259765625,2.370651960372925,0.18249200284481049,2.223642110824585
1771514701539068000,23.63706787109375,5.607028961181641,1.2439899444580078,1.8194539546966553
1771514701559474700,23.657474609375,6.283731937408447,1.9245840311050415,0.8476309776306152
1771514701579879200,23.677879150390623,5.754305839538574,2.0576579570770264,-0.5102909803390503
1771514701600275700,23.698275634765626,3.267810106277466,1.9419159889221191,-2.4445369243621826
1771514701620670700,23.718670654296876,-0.28376999497413635,1.8097440004348755,-3.6654748916625977
1771514701641071900,23.73907177734375,-2.989145040512085,1.3523249626159668,-3.9105920791625977
1771514701661476600,23.7594765625,-3.763300895690918,0.7523810267448425,-3.1727869510650635
1771514701681881600,23.779881591796876,-3.4948089122772217,0.27497398853302,-2.026762008666992
1771514701702285800,23.800285888671876,-2.5886900424957275,0.005781999789178371,-1.1606299877166748
1771514701722692400,23.8206923828125,-1.245514988899231,0.047669000923633575,-0.24100199341773987
1771514701743101700,23.841101806640626,1.2898249626159668,-0.07360800355672836,0.2595219910144806
1771514701763509500,23.861509521484376,3.0908470153808594,-0.9144960045814514,0.6918489933013916
1771514701783917000,23.8819169921875,1.5520180463790894,-1.3779699802398682,0.9729369878768921
1771514701804321000,23.902321044921877,-0.6820129752159119,-1.1149630546569824,0.7894669771194458
1771514701824722400,23.922722412109376,-1.3043450117111206,-0.44367000460624695,0.6664999723434448
1771514701845126700,23.943126708984376,0.26455798745155334,0.14688999950885773,0.5847619771957397
1771514701865537800,23.963537841796875,2.309438943862915,0.20356999337673187,0.6299200057983398
1771514701885952800,23.983952880859373,2.3754680156707764,-0.34808099269866943,0.6485390067100525
1771514701906362400,24.0043623046875,0.9772719740867615,-0.3562319874763489,0.9560009837150574
1771514701926767600,24.024767578125,0.7301830053329468,0.03225500136613846,0.34673699736595154
1771514701947172900,24.0451728515625,1.8380329608917236,0.4839870035648346,-0.1533849984407425
1771514701967579600,24.06557958984375,2.898505926132202,0.1556060016155243,-0.8624340295791626
1771514701987989000,24.085989013671874,1.7477140426635742,-0.20999300479888916,-1.207034945487976
1771514702008401200,24.106401123046876,-0.5035949945449829,-0.29062899947166443,-0.8871179819107056
1771514702028810200,24.126810302734373,-1.6333659887313843,-0.07240399718284607,-0.8886139988899231
1771514702049215200,24.14721533203125,-1.7427090406417847,0.13792000710964203,-0.775672972202301
1771514702069618400,24.167618408203126,-1.432474970817566,0.31934699416160583,-0.43243899941444397
1771514702090019800,24.188019775390625,0.015351999551057816,0.37354201078414917,0.12444499880075455
1771514702110420000,24.208419921875,1.5044829845428467,0.32291099429130554,0.4839850068092346
1771514702130819600,24.228819580078124,1.8311270475387573,0.09904900193214417,0.6114420294761658
1771514702151218400,24.249218505859375,0.5319709777832031,-0.4315060079097748,-0.05667300149798393
1771514702171617300,24.2696171875,-0.4803520143032074,-0.1309109926223755,-0.24835999310016632
1771514702192018400,24.290018310546873,-0.43063101172447205,-0.041669998317956924,-0.6455469727516174
1771514702212420000,24.310420166015625,-0.12524299323558807,-0.15495699644088745,-0.7300879955291748
1771514702232820500,24.330820556640624,0.5280230045318604,-0.13173599541187286,-0.2785080075263977
1771514702253218300,24.35121826171875,2.3726449012756348,0.1304430067539215,-0.04900199919939041
1771514702273614000,24.371614013671874,3.2962489128112793,-0.20127199590206146,-0.3487659990787506
1771514702294009000,24.392009033203124,0.6698729991912842,-0.7890769839286804,-0.8462539911270142
1771514702314405000,24.412405029296874,-1.4495559930801392,-0.37787899374961853,-0.5949419736862183
1771514702334802700,24.432802734375,-1.0115649700164795,-0.4340290129184723,-0.7782570123672485
1771514702355203800,24.453203857421876,0.06540200114250183,-0.6469680070877075,-0.3088490068912506
1771514702375609000,24.473609130859376,0.8830260038375854,-1.2167240381240845,0.32965800166130066
1771514702396015400,24.494015380859373,0.9710069894790649,-1.5436569452285767,0.6340420246124268
1771514702416420000,24.514420166015626,0.559194028377533,-1.5684089660644531,0.5294129848480225
1771514702436824600,24.534824462890626,-0.3462910056114197,-1.471321940422058,0.3221980035305023
1771514702457228800,24.555228759765626,-0.9285150170326233,-1.1459970474243164,0.4975470006465912
1771514702477628200,24.575628173828125,0.06982800364494324,-0.7118359804153442,0.7098919749259949
1771514702498026500,24.596026611328124,1.5887670516967773,-0.15603700280189514,1.0097739696502686
1771514702518426000,24.616426025390624,3.1304099559783936,-0.07440699636936188,0.7984189987182617
1771514702538826200,24.636826171875,2.025484085083008,-0.06719999760389328,0.49189600348472595
1771514702559232500,24.657232421875,0.41788798570632935,0.2266169935464859,0.2621000111103058
1771514702579639600,24.6776396484375,0.2243880033493042,0.7294729948043823,-0.04184199869632721
1771514702600043800,24.698043701171876,1.2964739799499512,0.7669489979743958,-0.43496599793434143
1771514702620447700,24.71844775390625,0.8803640007972717,0.25763800740242004,-0.652804970741272
1771514702640854000,24.73885400390625,-0.10812900215387344,0.12539400160312653,0.02698799967765808
1771514702661262000,24.759261962890626,0.5194460153579712,0.39825400710105896,0.08415500074625015
1771514702681667600,24.77966748046875,1.466156005859375,0.31781598925590515,-0.1006309986114502
1771514702702070800,24.80007080078125,0.6457509994506836,0.0767040029168129,-0.26101699471473694
1771514702722469600,24.8204697265625,-0.1622679978609085,-0.07956100255250931,-0.1106249988079071
1771514702742866700,24.84086669921875,-0.310573011636734,-0.09640300273895264,-0.11016599833965302
1771514702763267300,24.861267333984376,-0.10004299879074097,-0.055410001426935196,-0.15554200112819672
1771514702783669800,24.881669677734376,-0.4640359878540039,-0.03170900046825409,-0.15742899477481842
1771514702804071400,24.902071533203124,-0.4431309998035431,0.4190030097961426,-0.0693340003490448
1771514702824474000,24.92247412109375,0.7195730209350586,0.7709220051765442,-0.08128699660301208
1771514702844880400,24.94288037109375,1.1962250471115112,0.2431049942970276,-0.09002300351858139
1771514702865292500,24.96329248046875,0.49679699540138245,-0.26873499155044556,0.2582490146160126
1771514702885702700,24.98370263671875,0.45088499784469604,-0.16340500116348267,0.31213700771331787
1771514702906105300,25.004105224609376,1.0070830583572388,-0.13223899900913239,0.22752399742603302
1771514702926504000,25.02450390625,0.9675329923629761,-0.12340500205755234,0.12904399633407593
1771514702946904600,25.044904541015626,1.0818639993667603,-0.28562700748443604,-0.07416500151157379
1771514702967308500,25.06530859375,1.327062964439392,-0.23648899793624878,-0.37424299120903015
1771514702987714600,25.085714599609375,1.8404430150985718,-0.15208299458026886,-0.4626849889755249
1771514703008121300,25.106121337890624,0.7646530270576477,-0.03589700162410736,-0.2935900092124939
1771514703028525300,25.126525390625,-0.959168016910553,0.16128599643707275,-0.2557869851589203
1771514703048928000,25.146927978515624,-1.980234980583191,0.7017269730567932,-0.21015200018882751
1771514703069328600,25.16732861328125,-0.907401978969574,1.215630054473877,-0.3963100016117096
1771514703089730800,25.187730712890627,0.8492749929428101,1.3326740264892578,-0.32162898778915405
1771514703110136300,25.20813623046875,1.8151849508285522,0.9022709727287292,-0.2829340100288391
1771514703130541000,25.228541015625,1.325368046760559,0.5485489964485168,-0.1416199952363968
1771514703150945500,25.248945556640624,0.26205700635910034,0.30304399132728577,-0.3848150074481964
1771514703171349000,25.269348876953124,-0.21588200330734253,0.16562700271606445,-0.6519150137901306
1771514703191752200,25.289752197265624,-0.03645600005984306,-0.15376000106334686,-0.540353000164032
1771514703212159700,25.31015966796875,0.42229101061820984,-0.5424730181694031,-0.34645798802375793
1771514703232567600,25.330567626953126,1.7928849458694458,-0.6375579833984375,0.22054199874401093
1771514703252976400,25.350976318359375,3.204943895339966,-0.8143270015716553,0.3024519979953766
1771514703273385700,25.3713857421875,2.238213062286377,-0.8304420113563538,0.1026030033826828
1771514703293790200,25.391790283203125,-0.048158999532461166,-0.5045260190963745,0.01945599913597107
1771514703314193000,25.41219287109375,-0.8788959980010986,-0.14556899666786194,-0.11534400284290314
1771514703334597400,25.432597412109374,-0.8382959961891174,0.10580399632453918,-0.06199299916625023
1771514703355006200,25.453006103515627,0.06675799936056137,0.40421900153160095,0.26180601119995117
1771514703375410400,25.473410400390627,1.3924399614334106,0.5353500247001648,0.5432490110397339
1771514703395810600,25.493810546875,1.2822129726409912,0.5698260068893433,0.562637984752655
1771514703416211500,25.51421142578125,0.5117890238761902,0.7498199939727783,0.4240860044956207
1771514703436611800,25.53461181640625,-0.6730139851570129,0.6024379730224609,0.09876099973917007
1771514703457013000,25.555012939453125,-1.1330569982528687,0.5921069979667664,0.2692970037460327
1771514703477411600,25.57541162109375,1.1029659509658813,0.44487398862838745,0.28359898924827576
1771514703497810400,25.595810546875,2.399091958999634,-0.317126989364624,0.19571100175380707
1771514703518210000,25.6162099609375,1.1359950304031372,-0.31319499015808105,0.6812630295753479
1771514703538610200,25.636610107421873,1.6871960163116455,0.19394899904727936,0.9598000049591064
1771514703559014100,25.65701416015625,3.0798919200897217,-0.1787319928407669,0.2963320016860962
1771514703579416300,25.677416259765625,0.7955859899520874,-0.6033869981765747,-0.12375099956989288
