time,seconds_elapsed,z,y,x
1771514678253882000,0.351882080078125,0.0006874999962747097,-0.002199999988079071,0.004399999976158142
1771514678264087600,0.362087646484375,-2.2596750259399414,-0.32958748936653137,0.29672500491142273
1771514678284292600,0.382292724609375,-3.281987428665161,-0.4152500033378601,0.41497498750686646
1771514678294601700,0.392601806640625,-4.3102126121521,-0.353237509727478,0.4988499879837036
1771514678315117600,0.41311767578125,-4.221112251281738,-0.3158375024795532,0.4609000086784363
1771514678335529700,0.43352978515625,-3.648287534713745,-0.383899986743927,0.36822500824928284
1771514678355944000,0.45394384765625,-2.9827873706817627,-0.45980000495910645,0.2564375102519989
1771514678376360000,0.47435986328125,-2.684274911880493,-0.4680500030517578,0.2050125002861023
1771514678396773600,0.494773681640625,-1.970787525177002,-0.36918750405311584,0.12361250072717667
1771514678417188400,0.515188232421875,-1.5580124855041504,-0.281187504529953,0.10422500222921371
1771514678437605600,0.535605712890625,-1.2355749607086182,-0.22110000252723694,0.07809999585151672
1771514678458024200,0.556024169921875,-1.0366125106811523,-0.17297500371932983,0.06806249916553497
1771514678478443300,0.576443359375,-0.9688249826431274,-0.14176249504089355,0.07796250283718109
1771514678498862000,0.596862060546875,-0.8401250243186951,0.004124999977648258,0.17957499623298645
1771514678519284000,0.617283935546875,-0.7358999848365784,0.082225002348423,0.2488749921321869
1771514678539707400,0.637707275390625,-0.6280999779701233,0.08910000324249268,0.260699987411499
1771514678560125000,0.658125,-0.545324981212616,0.09171249717473984,0.23787499964237213
1771514678580543000,0.67854296875,-0.5282750129699707,0.10917499661445618,0.2223374992609024
1771514678600959700,0.698959716796875,-0.5285499691963196,0.1691250056028366,0.1568875014781952
1771514678621375500,0.71937548828125,-0.5224999785423279,0.17861250042915344,0.10147500038146973
1771514678641792800,0.739792724609375,-0.44591251015663147,0.12870000302791595,0.050187498331069946
1771514678662211800,0.7602119140625,-0.322299987077713,0.010999999940395355,0.0002749999985098839
1771514678682631700,0.780631591796875,-0.27486249804496765,-0.05884999781847,-0.0340999998152256
1771514678703044600,0.801044677734375,-0.21216249465942383,-0.13323749601840973,-0.1097249984741211
1771514678723454700,0.821454833984375,-0.19497500360012054,0.013612499460577965,0.005362499970942736
1771514678743866400,0.841866455078125,-0.18782499432563782,0.047712501138448715,0.04688749834895134
1771514678764278800,0.86227880859375,-0.14602500200271606,0.09006249904632568,0.12251249700784683
1771514678784694300,0.8826943359375,-0.09597499668598175,0.0644875019788742,0.12594999372959137
1771514678805110800,0.90311083984375,-0.05087500065565109,0.03959999978542328,0.09047500044107437
1771514678825527300,0.92352734375,-0.027912499383091927,0.016087500378489494,0.05472499877214432
1771514678845939700,0.943939697265625,0.05389999970793724,-0.1508374959230423,-0.10958749800920486
1771514678866343700,0.96434375,0.09927500039339066,-0.25616249442100525,-0.21587499976158142
1771514678886748400,0.98474853515625,0.11769999563694,-0.2677125036716461,-0.2703250050544739
1771514678907156200,1.00515625,0.10724999755620956,-0.2241249978542328,-0.2864125072956085
1771514678927567600,1.025567626953125,0.11082500219345093,-0.19772499799728394,-0.27527499198913574
1771514678947980800,1.045980712890625,0.16596250236034393,-0.18136249482631683,-0.22261250019073486
1771514678968392700,1.066392822265625,0.21326249837875366,-0.23883749544620514,-0.21821250021457672
1771514678988809200,1.086809326171875,0.24076250195503235,-0.271699994802475,-0.23058749735355377
1771514679009229000,1.10722900390625,0.22165000438690186,-0.21326249837875366,-0.22151249647140503
1771514679029645000,1.12764501953125,0.18438750505447388,-0.1424500048160553,-0.1970375031232834
1771514679050056400,1.148056396484375,0.07975000143051147,-0.021724998950958252,-0.13942499458789825
1771514679070467800,1.1684677734375,0.09693749994039536,-0.10862500220537186,-0.13695000112056732
1771514679090879200,1.188879150390625,0.09075000137090683,-0.15867500007152557,-0.11123749613761902
1771514679111290600,1.20929052734375,0.045237500220537186,-0.08071249723434448,-0.05486249923706055
1771514679131705900,1.229705810546875,-0.007424999959766865,0.03849999979138374,0.00013749999925494194
1771514679152121300,1.250121337890625,-0.011137500405311584,0.06641250103712082,0.010174999944865704
1771514679172537900,1.270537841796875,0.026124998927116394,-0.004124999977648258,-0.029975000768899918
1771514679192955400,1.290955322265625,0.043037500232458115,-0.04331250116229057,-0.05816249921917915
1771514679213370400,1.311370361328125,0.029012499377131462,-0.01251249946653843,-0.030249999836087227
1771514679233781200,1.33178125,-0.014574999921023846,0.03863750025629997,0.004399999976158142
1771514679254192400,1.3521923828125,-0.08841250091791153,0.03946249932050705,0.002337499987334013
1771514679274606300,1.3726064453125,-0.08236250281333923,0.016087500378489494,-0.040837500244379044
1771514679295019300,1.393019287109375,-0.04468749836087227,-0.010724999941885471,-0.06104999780654907
1771514679315430400,1.413430419921875,-0.018012499436736107,-0.05912499874830246,-0.08249999582767487
1771514679335841300,1.43384130859375,0.02461249940097332,-0.08387500047683716,-0.09556250274181366
1771514679356254500,1.45425439453125,0.05706249922513962,-0.1335124969482422,-0.11508750170469284
1771514679376668200,1.474668212890625,0.035475000739097595,-0.16692499816417694,-0.14506250619888306
1771514679397080800,1.495080810546875,0.008937500417232513,-0.10752499848604202,-0.11481250077486038
1771514679417494000,1.515493896484375,0.015949999913573265,-0.05623750016093254,-0.04936249926686287
1771514679437906000,1.535906005859375,0.015949999913573265,-0.029975000768899918,-0.0193875003606081
1771514679458317600,1.556317626953125,-0.004124999977648258,0.0015124999918043613,-0.002062499988824129
1771514679478735600,1.576735595703125,-0.06792499870061874,0.09377499669790268,0.04221250116825104
1771514679499155700,1.59715576171875,-0.089649997651577,0.16554999351501465,0.09803749620914459
1771514679519572200,1.617572265625,-0.07315000146627426,0.18548749387264252,0.1405249983072281
1771514679539984600,1.637984619140625,-0.03629999980330467,0.18892499804496765,0.18645000457763672
1771514679560395300,1.658395263671875,-0.02681249938905239,0.18095000088214874,0.20886249840259552
1771514679580808700,1.67880859375,-0.045649997889995575,0.14231249690055847,0.17971250414848328
1771514679601222100,1.69922216796875,-0.005499999970197678,0.08016250282526016,0.1256749927997589
1771514679621633500,1.719633544921875,0.07026249915361404,0.04413750022649765,0.09597499668598175
1771514679642044200,1.740044189453125,0.1163249984383583,0.06778749823570251,0.0952875018119812
1771514679662454500,1.76045458984375,0.10986249893903732,0.09404999762773514,0.05719999969005585
1771514679682867700,1.78086767578125,0.10051249712705612,0.043037500232458115,-0.025162499397993088
1771514679703281400,1.801281494140625,0.1434125006198883,-0.07975000143051147,-0.08098749816417694
1771514679723691500,1.82169140625,0.24722500145435333,-0.1919499933719635,-0.059950001537799835
1771514679744099600,1.842099609375,0.3863750100135803,-0.24639999866485596,0.06558749824762344
1771514679764508700,1.8625087890625,0.32284998893737793,-0.1639000028371811,0.14396250247955322
1771514679784920600,1.882920654296875,0.1629374921321869,-0.07727500051259995,0.17627499997615814
1771514679805333800,1.903333740234375,0.05926249921321869,-0.04867500066757202,0.1765500009059906
1771514679825744400,1.923744384765625,-0.010174999944865704,-0.04853750020265579,0.15702499449253082
1771514679846152400,1.94415234375,-0.0672374963760376,-0.018012499436736107,0.15771250426769257
1771514679866560800,1.964560791015625,-0.03863750025629997,0.05224999785423279,0.25519999861717224
1771514679886969900,1.984969970703125,0.08208750188350677,0.05156249925494194,0.33701249957084656
1771514679907380000,2.0053798828125,0.038224998861551285,0.048124998807907104,0.23553749918937683
1771514679927792600,2.025792724609375,-0.14891250431537628,0.007974999956786633,0.026537500321865082
1771514679948200000,2.046199951171875,-0.2527250051498413,-0.20845000445842743,-0.16472500562667847
1771514679968605200,2.066605224609375,-0.31693750619888306,-0.23375000059604645,-0.15496249496936798
1771514679989013000,2.087012939453125,-0.20446249842643738,-0.014299999922513962,0.15331250429153442
1771514680009421800,2.107421875,-0.0943249985575676,0.1597750037908554,0.3858250081539154
1771514680029831700,2.127831787109375,-0.1970375031232834,0.11371249705553055,0.26551249623298645
1771514680050242800,2.148242919921875,-0.46268749237060547,0.017875000834465027,0.01484999991953373
1771514680070654000,2.168654052734375,-0.6032124757766724,0.1769624948501587,0.10023749619722366
1771514680091064000,2.18906396484375,-0.3414124846458435,0.2934249937534332,0.4877125024795532
1771514680111475200,2.20947509765625,-0.004674999974668026,0.13557499647140503,0.7196750044822693
1771514680131883000,2.229883056640625,0.22618749737739563,-0.06338749825954437,0.7706875205039978
1771514680152285000,2.250284912109375,0.45553749799728394,-0.19208750128746033,0.7617499828338623
1771514680172687600,2.2706875,0.6191624999046326,-0.1835625022649765,0.7478625178337097
1771514680193092900,2.2910927734375,0.41401249170303345,0.04193750023841858,0.5286874771118164
1771514680213498400,2.311498291015625,-0.04867500066757202,0.26688748598098755,0.11055000126361847
1771514680233905700,2.33190576171875,-0.46447500586509705,0.4193750023841858,-0.3044250011444092
1771514680254314000,2.35231396484375,-0.7251750230789185,0.5535749793052673,-0.6373124718666077
1771514680274718700,2.37271875,-0.6869499683380127,0.5141124725341797,-0.6562874913215637
1771514680295125800,2.393125732421875,-0.2583625018596649,0.19772499799728394,-0.48221248388290405
1771514680315536600,2.41353662109375,0.13763749599456787,-0.0030249999836087227,-0.21972499787807465
1771514680335949800,2.43394970703125,0.3198249936103821,0.0035749999806284904,-0.04853750020265579
1771514680356360400,2.4543603515625,0.35199999809265137,0.026399999856948853,-0.03891250118613243
1771514680376765700,2.474765625,0.408237487077713,-0.05156249925494194,-0.11343749612569809
1771514680397170200,2.495170166015625,0.39778751134872437,-0.022824998944997787,-0.16073749959468842
1771514680417572900,2.51557275390625,0.2667500078678131,0.20336249470710754,-0.1387374997138977
1771514680437974000,2.53597412109375,0.29411250352859497,0.32999998331069946,-0.06984999775886536
1771514680458377000,2.556376953125,0.5378999710083008,0.2116124927997589,0.01223750039935112
1771514680478784800,2.57678466796875,0.6260374784469604,0.040837500244379044,-0.059812501072883606
1771514680499192300,2.5971923828125,0.41827499866485596,-0.11935000121593475,-0.37798750400543213
1771514680519602700,2.617602783203125,0.3390749990940094,-0.20611250400543213,-0.545324981212616
1771514680540018700,2.638018798828125,0.4351874887943268,-0.1742125004529953,-0.46818751096725464
1771514680560430300,2.658430419921875,0.46213749051094055,-0.06696250289678574,-0.34154999256134033
1771514680580843500,2.678843505859375,0.40933749079704285,0.15427500009536743,-0.15056249499320984
1771514680601260800,2.6992607421875,0.40012499690055847,0.39531248807907104,0.06599999964237213
1771514680621675800,2.71967578125,0.44536250829696655,0.41263750195503235,0.17572499811649323
1771514680642091800,2.740091796875,0.5024250149726868,0.1970375031232834,0.12581250071525574
1771514680662506200,2.76050634765625,0.5355625152587891,0.055137500166893005,0.07438749819993973
1771514680682919200,2.780919189453125,0.45003750920295715,-0.20074999332427979,0.0002749999985098839
1771514680703328000,2.801327880859375,0.2326499968767166,-0.14822499454021454,-0.0010999999940395355
1771514680723737300,2.8217373046875,0.02736249938607216,-0.07397499680519104,0.014024999924004078
1771514680744148700,2.842148681640625,-0.17833749949932098,-0.057475000619888306,0.02928750030696392
1771514680764558300,2.862558349609375,-0.23319999873638153,-0.14904999732971191,0.02736249938607216
1771514680784972800,2.882972900390625,-0.24268749356269836,-0.22151249647140503,0.07342500239610672
1771514680805390300,2.903390380859375,-0.28558748960494995,-0.18645000457763672,0.13667500019073486
1771514680825805300,2.923805419921875,-0.296037495136261,-0.1695374995470047,0.11728750169277191
1771514680846220500,2.944220458984375,-0.21848750114440918,-0.29411250352859497,-0.002337499987334013
1771514680866633500,2.964633544921875,-0.2172500044107437,-0.3438875079154968,-0.07369999587535858
1771514680887045600,2.985045654296875,-0.41690000891685486,-0.31459999084472656,-0.23608750104904175
1771514680907461600,3.005461669921875,-0.48592498898506165,-0.2759625017642975,-0.31927499175071716
1771514680927878400,3.02587841796875,-0.5597624778747559,-0.2186249941587448,-0.3973749876022339
1771514680948294400,3.04629443359375,-0.6875,-0.09693749994039536,-0.47657498717308044
1771514680968708000,3.0667080078125,-0.7741249799728394,0.1311749964952469,-0.5077875256538391
1771514680989120000,3.0871201171875,-0.8084999918937683,0.3372874855995178,-0.4587000012397766
1771514681009532000,3.107531982421875,-0.812624990940094,0.4683249890804291,-0.3492499887943268
1771514681029943000,3.127943115234375,-0.7529500126838684,0.4963749945163727,-0.2204124927520752
1771514681050355000,3.14835498046875,-0.5564625263214111,0.3326124846935272,-0.1303499937057495
1771514681070768400,3.168768310546875,-0.3353624939918518,0.1247124969959259,-0.08676250278949738
1771514681091180300,3.18918017578125,-0.2143625020980835,0.012787500396370888,-0.05224999785423279
1771514681111590000,3.20958984375,-0.16981250047683716,-0.0016499999910593033,-0.021312499418854713
1771514681132000500,3.23000048828125,-0.09638749808073044,0.0015124999918043613,-0.008799999952316284
1771514681152409900,3.250409912109375,-0.030662499368190765,-0.008249999955296516,-0.06737499684095383
1771514681172815600,3.270815673828125,-0.03451250120997429,-0.03341250121593475,-0.16060000658035278
1771514681193220600,3.291220703125,-0.06613750010728836,-0.04963750019669533,-0.18438750505447388
1771514681213626000,3.311626220703125,-0.032862499356269836,-0.010037500411272049,-0.10175000131130219
1771514681234033700,3.33203369140625,0.042899999767541885,0.1266375035047531,0.07699999958276749
1771514681254444800,3.35244482421875,0.11893749982118607,0.1381874978542328,0.15826250612735748
1771514681274858500,3.3728583984375,0.12086249887943268,0.1434125006198883,0.17641249299049377
1771514681295269400,3.393269287109375,0.08799999952316284,0.15125000476837158,0.21408750116825104
1771514681315681500,3.413681640625,0.08786249905824661,0.14657500386238098,0.2554749846458435
1771514681336094500,3.434094482421875,-0.026399999856948853,0.10958749800920486,0.36506250500679016
1771514681356504300,3.45450439453125,-0.25437501072883606,0.07218749821186066,0.38513749837875366
1771514681376910600,3.47491064453125,-0.43092501163482666,-0.05596249923110008,0.4104374945163727
1771514681397317400,3.4953173828125,-0.6968500018119812,0.012374999932944775,0.4982999861240387
1771514681417723600,3.5157236328125,-0.9077749848365784,0.1966249942779541,0.5568749904632568
1771514681438130200,3.536130126953125,-1.3887499570846558,0.21656249463558197,0.6011499762535095
1771514681458541300,3.556541259765625,-1.3862749338150024,0.4982999861240387,1.037024974822998
1771514681478956000,3.5769560546875,-1.0247875452041626,0.8318749666213989,1.4555749893188477
1771514681499367400,3.597367431640625,-0.4585624933242798,0.3312374949455261,1.704587459564209
1771514681519775700,3.617775634765625,-0.15592500567436218,0.11275000125169754,1.6726875305175781
1771514681540186400,3.638186279296875,0.6136624813079834,-0.737137496471405,1.2640374898910522
1771514681560598000,3.658597900390625,0.6538124680519104,-0.7693125009536743,1.1027499437332153
1771514681581010400,3.679010498046875,-0.11233749985694885,0.0752125009894371,0.8471375107765198
1771514681601419800,3.699419677734375,-0.8023124933242798,1.033174991607666,0.5790125131607056
1771514681621828400,3.719828369140625,-0.7605124711990356,1.3440624475479126,0.6198499798774719
1771514681642240300,3.740240234375,0.2194499969482422,1.9170249700546265,0.8837124705314636
1771514681662654200,3.760654296875,1.018049955368042,1.1882749795913696,1.2366750240325928
1771514681683069700,3.781069580078125,1.8748124837875366,0.24034999310970306,0.8514000177383423
1771514681703484400,3.801484375,3.2624623775482178,-1.7125624418258667,0.07067500054836273
1771514681723893200,3.821893310546875,3.630962371826172,-2.6362874507904053,-1.2879624366760254
1771514681744300000,3.842300048828125,1.9578624963760376,-1.554574966430664,-2.3655500411987305
1771514681764711000,3.8627109375,1.0008624792099,-0.5383124947547913,-2.5232625007629395
1771514681785121300,3.883121337890625,1.1714999675750732,-0.022962499409914017,-1.3322374820709229
1771514681805529900,3.90352978515625,2.0186374187469482,0.0010999999940395355,-0.6641250252723694
1771514681825939000,3.92393896484375,2.4469499588012695,0.1447875052690506,-0.3305499851703644
1771514681846348500,3.9443486328125,1.9626749753952026,0.7294374704360962,-0.35791251063346863
1771514681866758400,3.96475830078125,1.3975499868392944,1.352312445640564,-0.2782999873161316
1771514681887170600,3.985170654296875,1.2923624515533447,1.5998125076293945,0.027637500315904617
1771514681907585000,4.0055849609375,1.255924940109253,1.6127375364303589,0.4497624933719635
1771514681927999200,4.025999267578125,1.2555124759674072,1.5079624652862549,0.9088749885559082
1771514681948411600,4.04641162109375,1.6388624906539917,1.1772749423980713,1.230625033378601
1771514681968821500,4.066821533203125,2.33736252784729,0.734250009059906,1.3661999702453613
1771514681989229800,4.087229736328125,2.7913875579833984,0.38417500257492065,1.3094124794006348
1771514682009637400,4.107637451171875,2.0813374519348145,0.23608750104904175,0.9224874973297119
1771514682030044400,4.12804443359375,1.0001749992370605,0.17668749392032623,0.40383750200271606
1771514682050450400,4.148450439453125,0.6360750198364258,0.07342500239610672,0.07864999771118164
1771514682070861000,4.168861083984375,1.1274999380111694,-0.04963750019669533,0.07562500238418579
1771514682091272400,4.1892724609375,1.728237509727478,-0.004399999976158142,0.552887499332428
1771514682111682600,4.2096826171875,1.471524953842163,0.29534998536109924,1.401537537574768
1771514682132090000,4.230090087890625,0.4515500068664551,0.6517499685287476,2.1720874309539795
1771514682152498700,4.250498779296875,-0.6311249732971191,0.8530499935150146,2.44103741645813
1771514682172911400,4.270911376953125,-1.13423752784729,0.8181250095367432,2.146512508392334
1771514682193323500,4.291323486328125,-1.0462374687194824,0.5883625149726868,1.537524938583374
1771514682213733000,4.311733154296875,-1.269950032234192,0.24832500517368317,0.8525000214576721
1771514682234137600,4.3321376953125,-2.808850049972534,-0.17957499623298645,0.26688748598098755
1771514682254545400,4.35254541015625,-3.806962490081787,-0.17847499251365662,0.42899999022483826
1771514682274958600,4.37295849609375,-3.928375005722046,-0.05458749830722809,0.5922124981880188
1771514682295370200,4.393370361328125,-3.791562557220459,-0.14354999363422394,0.4536125063896179
1771514682315780400,4.4137802734375,-6.091249942779541,0.28888750076293945,0.18438750505447388
1771514682336190700,4.434190673828125,-2.8290624618530273,-0.1634874939918518,0.01759999990463257
1771514682356605400,4.45460546875,2.6809749603271484,0.25519999861717224,0.3665750026702881
1771514682377018600,4.4750185546875,1.9628125429153442,1.1923999786376953,1.5342249870300293
1771514682397425700,4.49542578125,0.3236750066280365,1.207800030708313,1.6561875343322754
1771514682417833000,4.5158330078125,1.2922250032424927,0.7199500203132629,0.8732625246047974
1771514682438241300,4.5362412109375,2.9100499153137207,0.17874999344348907,-0.09913749992847443
1771514682458646500,4.556646484375,2.412987470626831,-0.4008125066757202,-0.8285750150680542
1771514682479051300,4.57705126953125,0.29548749327659607,-0.7651875019073486,-0.9708874821662903
1771514682499456500,4.59745654296875,-0.18782499432563782,-0.6835125088691711,-0.7664250135421753
1771514682519860200,4.617860107421875,0.6814500093460083,-0.49018749594688416,-0.635937511920929
1771514682540264200,4.63826416015625,0.8101499676704407,-0.5181000232696533,-0.8251374959945679
1771514682560669400,4.65866943359375,-0.06902500241994858,-0.6140750050544739,-1.008562445640564
1771514682581076200,4.679076171875,-0.9216625094413757,-0.549037516117096,-0.8823375105857849
1771514682601485600,4.699485595703125,-0.8816499710083008,-0.31638750433921814,-0.5418875217437744
1771514682621895700,4.719895751953125,-0.9765250086784363,-0.11096250265836716,-0.23278750479221344
1771514682642303500,4.740303466796875,-2.17291259765625,0.1036750003695488,0.06063750013709068
1771514682662711600,4.760711669921875,-2.901937484741211,0.05884999781847,0.020487500354647636
1771514682683119600,4.78111962890625,-1.644362449645996,-0.4137375056743622,-0.3343999981880188
1771514682703524400,4.8015244140625,-1.133412480354309,-0.4487999975681305,-0.33934998512268066
1771514682723926500,4.821926513671875,-0.39489999413490295,-0.4652999937534332,-0.3026374876499176
1771514682744329000,4.842328857421875,0.6579374670982361,-0.7423624992370605,-0.4465999901294708
1771514682764734000,4.86273388671875,0.8412249684333801,-0.7793499827384949,-0.45704999566078186
1771514682785142000,4.88314208984375,0.5919374823570251,-0.6545000076293945,-0.36134999990463257
1771514682805553000,4.903552978515625,0.41786250472068787,-0.4012250006198883,-0.11178749799728394
1771514682825961500,4.92396142578125,0.4248749911785126,-0.07535000145435333,0.23897500336170197
1771514682846365700,4.94436572265625,0.08978749811649323,0.1765500009059906,0.46970000863075256
1771514682866773800,4.964773681640625,-0.5341874957084656,0.34306249022483826,0.5656750202178955
1771514682887184000,4.985183837890625,-1.3899874687194824,0.42858749628067017,0.517549991607666
1771514682907591700,5.005591796875,-1.5465999841690063,0.23938749730587006,0.2628999948501587
1771514682927997200,5.0259970703125,-1.0833624601364136,-0.2815999984741211,-0.18617500364780426
1771514682948405500,5.046405517578125,-0.0471624992787838,-0.6551874876022339,-0.4111250042915344
1771514682968811800,5.066811767578125,0.5702124834060669,-0.547249972820282,-0.24296249449253082
1771514682989214200,5.087214111328125,0.9366499781608582,-0.283112496137619,0.029012499377131462
1771514683009617700,5.10761767578125,1.2313125133514404,0.08772499859333038,0.36079999804496765
1771514683030024000,5.12802392578125,1.4763374328613281,0.5040749907493591,0.7627124786376953
1771514683050431000,5.148430908203125,1.7364875078201294,0.6323624849319458,0.9385749697685242
1771514683070836700,5.168836669921875,0.947237491607666,0.4834499955177307,0.6847500205039978
1771514683091239400,5.189239501953125,0.5039374828338623,0.19016249477863312,0.2718375027179718
1771514683111641000,5.20964111328125,0.42899999022483826,-0.16733749210834503,-0.17201249301433563
1771514683132046800,5.230046875,-0.2997500002384186,-0.33660000562667847,-0.4482499957084656
1771514683152453600,5.25045361328125,-0.7441499829292297,-0.3031874895095825,-0.4405499994754791
1771514683172858000,5.270858154296875,-0.7856749892234802,-0.20652499794960022,-0.33096250891685486
1771514683193263900,5.291263916015625,-0.668524980545044,-0.13007499277591705,-0.22343750298023224
1771514683213672700,5.311672607421875,-0.5608624815940857,-0.11041250079870224,-0.17765000462532043
1771514683234085000,5.332085205078125,-0.5317124724388123,-0.33412501215934753,-0.3656125068664551
1771514683254497800,5.352497802734375,-0.07493750005960464,-0.43353748321533203,-0.3609375059604645
1771514683274906600,5.37290673828125,-0.09872499853372574,-0.35103750228881836,-0.2934249937534332
1771514683295315000,5.39331494140625,0.10683749616146088,-0.2932874858379364,-0.21518750488758087
1771514683315724500,5.413724609375,0.16967499256134033,-0.09487500041723251,-0.0034374999813735485
1771514683336134100,5.434134033203125,0.3928374946117401,-0.1303499937057495,0.04138749837875366
1771514683356543200,5.454543212890625,0.5993624925613403,-0.15619999170303345,0.12058749794960022
1771514683376950800,5.47495068359375,0.09157499670982361,-0.13323749601840973,0.09583749622106552
1771514683397357800,5.49535791015625,0.023512499406933784,-0.19607499241828918,0.03712499886751175
1771514683417770000,5.51577001953125,0.1564749926328659,-0.40521249175071716,-0.1358499974012375
1771514683438189000,5.53618896484375,-0.5300624966621399,-0.5198875069618225,-0.3712500035762787
1771514683458606300,5.5566064453125,-0.8463125228881836,-0.41263750195503235,-0.2620750069618225
1771514683479019300,5.577019287109375,-1.3591874837875366,-0.27293750643730164,-0.1498750001192093
1771514683499431700,5.597431640625,-1.4158375263214111,-0.060087498277425766,0.07479999959468842
1771514683519845000,5.61784521484375,-1.2007875442504883,0.16224999725818634,0.33550000190734863
1771514683540258000,5.638258056640625,-1.0488499402999878,0.25478750467300415,0.5007749795913696
1771514683560666400,5.658666259765625,-1.1842875480651855,0.2539624869823456,0.5341874957084656
1771514683581074200,5.67907421875,-1.652750015258789,0.14973749220371246,0.37853750586509705
1771514683601488100,5.699488037109375,-1.77058744430542,-0.41827499866485596,-0.08208750188350677
1771514683621906200,5.71990625,-1.7641249895095825,-1.0052624940872192,-0.5380374789237976
1771514683642320600,5.740320556640625,-1.9120750427246094,-0.7484124898910522,-0.5216749906539917
1771514683662728700,5.760728759765625,-1.6933125257492065,0.1260875016450882,-0.05719999969005585
1771514683683139600,5.7811396484375,-0.821150004863739,1.1647624969482422,0.64638751745224
1771514683703552000,5.801552001953125,-0.7522624731063843,1.3822875022888184,0.7526749968528748
1771514683723959800,5.821959716796875,-0.040699999779462814,1.4832124710083008,0.9318374991416931
1771514683744367400,5.842367431640625,0.8001124858856201,1.2731125354766846,1.0107624530792236
1771514683764775000,5.86277490234375,1.3811874389648438,0.2685374915599823,0.5361124873161316
1771514683785181200,5.88318115234375,1.0969749689102173,-0.6621999740600586,-0.12540000677108765
1771514683805586400,5.90358642578125,0.8091874718666077,-0.9972875118255615,-0.4174500107765198
1771514683825993200,5.9239931640625,0.5402374863624573,-0.6854375004768372,-0.2858625054359436
1771514683846402600,5.944402587890625,0.727649986743927,-0.1676124930381775,0.06751249730587006
1771514683866810000,5.96481005859375,0.6037625074386597,0.25341248512268066,0.2714250087738037
1771514683887215000,5.985215087890625,1.266237497329712,0.04619999974966049,0.22247499227523804
1771514683907621400,6.005621337890625,1.4000250101089478,-0.0057749999687075615,0.17173749208450317
1771514683928027100,6.026027099609375,1.4918749332427979,-0.10986249893903732,0.0789249986410141
1771514683948434400,6.046434326171875,1.6373499631881714,-0.011549999937415123,0.19236250221729279
1771514683968844800,6.0668447265625,1.9549750089645386,0.30937498807907104,0.5335000157356262
1771514683989254400,6.08725439453125,1.8997000455856323,0.7420874834060669,0.940500020980835
1771514684009659000,6.107658935546875,1.474412441253662,0.7028999924659729,0.7797625064849854
1771514684030063000,6.12806298828125,0.8571749925613403,0.49486249685287476,0.40094998478889465
1771514684050467300,6.14846728515625,0.5300624966621399,0.13007499277591705,-0.10986249893903732
1771514684070869200,6.168869140625,-0.02447500079870224,0.05403750017285347,-0.28929999470710754
1771514684091272400,6.1892724609375,-0.9707499742507935,-0.18273749947547913,-0.6565625071525574
1771514684111676000,6.209676025390625,-1.3985124826431274,-0.28283751010894775,-0.7486875057220459
1771514684132081400,6.230081298828125,-1.383525013923645,-0.6247999668121338,-0.7441499829292297
1771514684152490000,6.250489990234375,-1.5859249830245972,-0.5757125020027161,-0.5391374826431274
1771514684172896800,6.270896728515625,-1.6179624795913696,-0.6324999928474426,-0.5692499876022339
1771514684193300200,6.29130029296875,-1.0627374649047852,-1.0415624380111694,-0.7367249727249146
1771514684213703200,6.311703125,-0.7547374963760376,-1.2513874769210815,-0.7968124747276306
1771514684234105900,6.33210595703125,-0.3950375020503998,-1.3337500095367432,-0.7717875242233276
1771514684254509000,6.352509033203125,-0.3797749876976013,-1.051187515258789,-0.6089875102043152
1771514684274912800,6.372912841796875,-0.06297499686479568,-0.5868499875068665,-0.23704999685287476
1771514684295316700,6.393316650390625,-0.35653749108314514,-0.18754999339580536,-0.07864999771118164
1771514684315721200,6.41372119140625,-0.5763999819755554,-0.2623499929904938,-0.18081249296665192
1771514684336125200,6.434125244140625,-1.0819875001907349,-0.14533749222755432,-0.26606249809265137
1771514684356528400,6.4545283203125,-1.3349875211715698,-0.5823125243186951,-0.6148999929428101
1771514684376931000,6.47493115234375,-1.3289375305175781,-1.0107624530792236,-0.8614374995231628
1771514684397336600,6.495336669921875,-1.448699951171875,-1.0394999980926514,-0.9226250052452087
1771514684417747200,6.515747314453125,-1.5795999765396118,-0.7578999996185303,-0.8417750000953674
1771514684438161400,6.536161376953125,-1.443750023841858,-0.7965375185012817,-0.7664250135421753
1771514684458574300,6.55657421875,-1.3010250329971313,-0.9315624833106995,-0.7056499719619751
1771514684478983000,6.57698291015625,-0.8571749925613403,-1.0114500522613525,-0.45210000872612
1771514684499390200,6.59739013671875,-0.6019750237464905,-0.6151750087738037,-0.14190000295639038
1771514684519800800,6.61780078125,-0.27912500500679016,0.014299999922513962,0.283112496137619
1771514684540212000,6.6382119140625,0.2008875012397766,0.5033875107765198,0.817300021648407
1771514684560619300,6.658619384765625,0.11027500033378601,0.47561249136924744,0.8710625171661377
1771514684581025500,6.679025634765625,0.2870999872684479,-0.42941248416900635,0.6180624961853027
1771514684601431600,6.699431640625,-0.3548874855041504,-0.9384375214576721,0.06778749823570251
1771514684621838000,6.719838134765625,-0.5966125130653381,-1.10756254196167,-0.113987497985363
1771514684642244600,6.74024462890625,-0.7204999923706055,-0.7360374927520752,-0.0006874999962747097
1771514684662655700,6.76065576171875,-0.5245624780654907,-0.2363625019788742,0.33660000562667847
1771514684683071200,6.7810712890625,-0.6050000190734863,0.4068624973297119,0.5677375197410583
1771514684703485700,6.801485595703125,-0.4002625048160553,0.9191874861717224,0.8681749701499939
1771514684723896000,6.82189599609375,-1.214537501335144,1.5309250354766846,0.6572499871253967
1771514684744303600,6.8423037109375,-0.5979874730110168,0.8617125153541565,0.6338750123977661
1771514684764710400,6.86271044921875,-2.6735498905181885,1.8185750246047974,-0.1938749998807907
1771514684785119500,6.883119384765625,-1.1554124355316162,1.1240625381469727,0.26592499017715454
1771514684805529900,6.90352978515625,-0.27761250734329224,0.8568999767303467,0.5872625112533569
1771514684825936400,6.923936279296875,0.37564998865127563,0.34251248836517334,0.7149999737739563
1771514684846344000,6.944343994140625,1.0826749801635742,-0.8359999656677246,0.6316750049591064
1771514684866750500,6.96475048828125,1.04087495803833,-1.4804625511169434,0.37056249380111694
1771514684887154200,6.985154296875,1.7568374872207642,-1.9043749570846558,0.4918375015258789
1771514684907558700,7.00555859375,0.9422875046730042,-1.1617374420166016,0.37757501006126404
1771514684927962000,7.025962158203125,1.3686749935150146,-0.4727250039577484,0.7732999920845032
1771514684948363300,7.04636328125,-0.07218749821186066,0.4002625048160553,0.49720001220703125
1771514684968767000,7.06676708984375,-0.18108749389648438,0.020762499421834946,0.2620750069618225
1771514684989172500,7.08717236328125,-0.07493750005960464,-0.48592498898506165,0.06929999589920044
1771514685009578800,7.107578857421875,-0.07067500054836273,-0.6048625111579895,-0.02928750030696392
1771514685029986000,7.127986083984375,0.5743374824523926,-0.608162522315979,0.15248750150203705
1771514685050393000,7.14839306640625,-0.21834999322891235,-0.47286251187324524,-0.15468749403953552
1771514685070800000,7.1687998046875,1.1017874479293823,-0.740024983882904,0.2120250016450882
1771514685091206000,7.189205810546875,0.46488749980926514,-0.5332249999046326,-0.0057749999687075615
1771514685111612400,7.2096123046875,0.571862518787384,-0.5696625113487244,-0.025712499395012856
1771514685132021800,7.230021728515625,0.649275004863739,-0.8056125044822693,-0.14079999923706055
1771514685152435000,7.25043505859375,-0.5813499689102173,-1.119112491607666,-0.7816874980926514
1771514685172847600,7.27084765625,-0.8834375143051147,-1.1298375129699707,-0.9363750219345093
1771514685193256700,7.291256591796875,-2.274937391281128,-0.8504375219345093,-1.4634125232696533
1771514685213666800,7.311666748046875,-2.6844124794006348,-0.830637514591217,-1.622362494468689
1771514685234080000,7.332080078125,-2.083400011062622,-0.8674874901771545,-1.2791625261306763
1771514685254490400,7.352490478515625,-1.5339499711990356,-1.30239999294281,-0.9369249939918518
1771514685274898000,7.37289794921875,-1.547700047492981,-0.7764624953269958,-0.7552874684333801
1771514685295308000,7.39330810546875,-1.4566749334335327,0.03671250119805336,-0.5648499727249146
1771514685315719200,7.41371923828125,-1.1688874959945679,0.6624749898910522,-0.32628750801086426
1771514685336128800,7.434128662109375,-0.995912492275238,0.721875011920929,-0.16596250236034393
1771514685356537300,7.454537353515625,-0.767662525177002,-0.0672374963760376,0.01952499896287918
1771514685376943000,7.474943115234375,-0.35667499899864197,-1.001824975013733,0.3190000057220459
1771514685397349600,7.495349609375,0.23086249828338623,-1.109624981880188,0.7386500239372253
1771514685417760000,7.515760009765625,0.775362491607666,-0.4866124987602234,1.140012502670288
1771514685438169900,7.536169921875,0.45704999566078186,0.3950375020503998,1.0382624864578247
1771514685458580700,7.556580810546875,0.28049999475479126,0.8119375109672546,0.9916499853134155
1771514685478990300,7.576990234375,-0.7244874835014343,0.6660500168800354,0.35887500643730164
1771514685499396000,7.59739599609375,-1.148537516593933,0.6987749934196472,0.08415000140666962
1771514685519800800,7.61780078125,-1.1175999641418457,0.3928374946117401,0.0999625027179718
1771514685540207000,7.63820703125,-0.9516375064849854,0.010174999944865704,0.20143750309944153
1771514685560613600,7.658613525390625,-0.12072499841451645,-0.13557499647140503,0.7226999998092651
1771514685581021700,7.679021728515625,0.2564375102519989,-0.12196250259876251,0.9124500155448914
1771514685601429500,7.699429443359375,0.2708750069141388,-0.5406500101089478,0.825962483882904
1771514685621835800,7.719835693359375,0.26028749346733093,-1.0689250230789185,0.7592750191688538
1771514685642241800,7.74024169921875,-0.089649997651577,-1.3613874912261963,0.555774986743927
1771514685662647000,7.76064697265625,-1.3179374933242798,0.05816249921917915,-0.11756250262260437
1771514685683052500,7.781052490234375,-0.8795874714851379,0.6065124869346619,0.23196250200271606
1771514685703458000,7.8014580078125,-1.2343374490737915,1.1609125137329102,-0.007287499960511923
1771514685723863800,7.82186376953125,-0.8105624914169312,0.5355625152587891,0.20996250212192535
1771514685744269000,7.84226904296875,-1.6245625019073486,1.015987515449524,-0.4542999863624573
1771514685764674600,7.862674560546875,0.17311249673366547,-0.8431500196456909,0.7108749747276306
1771514685785085000,7.8830849609375,0.6872249841690063,-1.032212495803833,0.9792749881744385
1771514685805500000,7.9035,0.2358125001192093,-0.6707249879837036,0.605412483215332
1771514685825913900,7.923913818359375,-0.19965000450611115,-1.519374966621399,0.2488749921321869
1771514685846323000,7.944322998046875,-1.4000250101089478,-1.4933874607086182,-0.6230124831199646
1771514685866729200,7.964729248046875,-1.0791000127792358,-2.0275750160217285,-0.2073500007390976
1771514685887136500,7.985136474609375,0.1868624985218048,-0.8861874938011169,0.8889374732971191
1771514685907545900,8.0055458984375,1.9988374710083008,1.1272250413894653,2.3365375995635986
1771514685927955700,8.025955810546876,2.035412549972534,1.2828749418258667,2.366925001144409
1771514685948362200,8.0463623046875,-0.30882498621940613,-0.27431249618530273,0.5178250074386597
1771514685968768300,8.066768310546875,0.21037499606609344,-2.3893375396728516,0.679937481880188
1771514685989177000,8.087177001953124,2.376275062561035,-2.0568625926971436,2.2206249237060547
1771514686009589000,8.107589111328124,2.896437406539917,-0.644462525844574,2.572624921798706
1771514686030000400,8.12800048828125,0.594962477684021,-1.3681249618530273,0.768625020980835
1771514686050408000,8.148407958984375,-2.824387550354004,-2.9023499488830566,-1.9581375122070312
1771514686070812700,8.168812744140626,-3.6796374320983887,-3.412062406539917,-2.7410624027252197
1771514686091216600,8.189216552734376,-3.1781749725341797,-2.111175060272217,-2.548150062561035
1771514686111623000,8.209622802734375,-2.443924903869629,0.36217498779296875,-2.3208625316619873
1771514686132029200,8.230029296875,-2.43292498588562,0.4846875071525574,-2.35441255569458
1771514686152434400,8.250434326171876,-3.292987585067749,-0.5687000155448914,-3.3005499839782715
1771514686172842200,8.27084228515625,-3.549562454223633,-1.3789875507354736,-3.5010249614715576
1771514686193250000,8.29125,-2.577162504196167,-0.6371750235557556,-2.4054250717163086
1771514686213657600,8.31165771484375,-1.0729124546051025,0.7308124899864197,-0.5139750242233276
1771514686234064600,8.332064697265626,0.5498625040054321,2.1507749557495117,1.6682875156402588
1771514686254472200,8.35247216796875,0.7816874980926514,2.2757625579833984,1.974637508392334
1771514686274882300,8.37288232421875,0.17531250417232513,-0.01677500084042549,1.8193999528884888
1771514686295290400,8.393290283203125,-1.1488125324249268,-1.9432874917984009,0.6133875250816345
1771514686315695600,8.413695556640626,-1.267337441444397,-1.573412537574768,0.2769249975681305
1771514686336102700,8.4341025390625,-0.8369625210762024,0.36134999990463257,0.01924999989569187
1771514686356512000,8.454511962890624,-1.0803375244140625,0.8210124969482422,-0.6593124866485596
1771514686376922400,8.47492236328125,-1.2307624816894531,0.9964625239372253,-1.1224124431610107
1771514686397331700,8.495331787109375,-1.2024375200271606,1.2849375009536743,-1.3171124458312988
1771514686417739000,8.515739013671874,-0.8914124965667725,2.218012571334839,-1.3166999816894531
1771514686438146600,8.536146484375,-0.7653250098228455,1.9973249435424805,-1.0289125442504883
1771514686458555000,8.556554931640624,-0.8579999804496765,1.0527000427246094,-0.7922750115394592
1771514686478959600,8.576959716796875,-0.9957749843597412,-0.45925000309944153,-0.3870624899864197
1771514686499362600,8.597362548828125,-1.2020249366760254,-1.3077625036239624,-0.34869998693466187
1771514686519765800,8.617765869140625,-1.101925015449524,-1.5683250427246094,0.10312499850988388
1771514686540168400,8.63816845703125,-0.7264124751091003,-1.7744375467300415,1.1211750507354736
1771514686560569900,8.65856982421875,-0.3051125109195709,-1.1367125511169434,1.5907374620437622
1771514686580971500,8.678971435546876,0.030387500301003456,0.4937624931335449,1.140012502670288
1771514686601380600,8.699380615234375,-0.07273750007152557,0.5820375084877014,0.7786625027656555
1771514686621793300,8.719793212890625,-0.5691124796867371,-0.1975875049829483,0.22495000064373016
1771514686642201000,8.740201171875,-1.0253374576568604,-0.5905625224113464,-0.4577375054359436
1771514686662608400,8.7606083984375,-1.2409374713897705,-0.6743000149726868,-0.9336249828338623
1771514686683016400,8.781016357421874,-1.0252000093460083,-0.8232125043869019,-0.38830000162124634
1771514686703421000,8.8014208984375,-0.2527250051498413,-0.16032500565052032,0.8273375034332275
1771514686723822800,8.82182275390625,0.4507249891757965,-0.06517499685287476,2.0369250774383545
1771514686744226000,8.84222607421875,0.14423750340938568,0.2232999950647354,1.0044374465942383
1771514686764630500,8.862630615234375,-0.6784250140190125,-1.3442000150680542,0.18136249482631683
1771514686785036300,8.883036376953125,-1.4510375261306763,-2.7777750492095947,-0.6653624773025513
1771514686805444400,8.9034443359375,-1.5834499597549438,-2.9191250801086426,-0.902412474155426
1771514686825853400,8.923853515625,-1.21274995803833,-2.0136873722076416,-0.7507500052452087
1771514686846260500,8.944260498046875,-0.7363125085830688,-0.7547374963760376,-0.8083624839782715
1771514686866663700,8.96466357421875,-0.42721250653266907,0.1555124968290329,-1.0377124547958374
1771514686887066400,8.98506640625,-0.5733749866485596,0.03849999979138374,-1.4720749855041504
1771514686907471000,9.00547119140625,-0.3381125032901764,0.6682500243186951,-1.6143875122070312
1771514686927876400,9.02587646484375,-0.25671249628067017,0.8276125192642212,-1.4365999698638916
1771514686948285200,9.04628515625,-0.23498749732971191,1.118149995803833,-1.6904250383377075
1771514686968697000,9.066697021484375,-0.3573625087738037,0.7129374742507935,-1.2535874843597412
1771514686989106400,9.0871064453125,-0.4314749836921692,0.12870000302791595,-0.41731250286102295
1771514687009513000,9.107512939453125,-0.6520249843597412,-0.4405499994754791,-0.23980000615119934
1771514687029922800,9.1279228515625,-0.4680500030517578,-0.04455000162124634,-0.021037500351667404
1771514687050336500,9.14833642578125,-0.30483749508857727,0.20377500355243683,0.382937490940094
1771514687070749400,9.16874951171875,-0.4862000048160553,-0.47107499837875366,1.0267125368118286
1771514687091160600,9.18916064453125,-0.46818751096725464,-0.2887499928474426,0.7416750192642212
1771514687111568000,9.20956787109375,-0.3683624863624573,0.1498750001192093,0.17916250228881836
1771514687131974000,9.229973876953125,-0.39902499318122864,0.24997499585151672,-0.36134999990463257
1771514687152380000,9.2503798828125,-0.47987499833106995,0.018012499436736107,-0.4791874885559082
1771514687172784000,9.2707841796875,-0.43174999952316284,-0.05128749832510948,-0.2844874858856201
1771514687193190000,9.29118994140625,-0.8514000177383423,-1.2093124389648438,0.4255625009536743
1771514687213596200,9.31159619140625,-1.2854875326156616,-2.0391249656677246,0.4740999937057495
1771514687233999600,9.33199951171875,-0.7727500200271606,-0.7445625066757202,0.1307625025510788
1771514687254404000,9.352404052734375,-0.23017500340938568,0.5035250186920166,-0.7607874870300293
1771514687274811000,9.372810791015626,-0.17159999907016754,0.4478375017642975,-0.1667875051498413
1771514687295218400,9.393218505859375,-0.07837499678134918,0.43972501158714294,0.18933749198913574
1771514687315625200,9.413625244140626,-0.30951249599456787,-0.1335124969482422,0.11192499846220016
1771514687336029400,9.434029541015626,-0.5245624780654907,-0.5637499690055847,-0.3961375057697296
1771514687356435000,9.45443505859375,-0.7308124899864197,-0.9674500226974487,-0.5863000154495239
1771514687376843000,9.474843017578126,-0.46502500772476196,-0.44714999198913574,-0.3172124922275543
1771514687397252900,9.4952529296875,-0.08703749626874924,0.3143250048160553,0.06599999964237213
1771514687417666600,9.51566650390625,0.05321250110864639,1.044450044631958,0.2784374952316284
1771514687438079500,9.53607958984375,-0.20157499611377716,0.6047250032424927,0.17104999721050262
1771514687458488600,9.556488525390625,-0.6202625036239624,-0.4399999976158142,-0.49953749775886536
1771514687478895400,9.576895263671876,-0.8203250169754028,-0.9084625244140625,-0.9101125001907349
1771514687499302700,9.597302734375,-0.9252374768257141,-1.1554124355316162,-0.7180249691009521
1771514687519710000,9.6177099609375,-0.6370375156402588,-0.5784624814987183,-0.4918375015258789
1771514687540117800,9.63811767578125,-0.38554999232292175,-0.0387750007212162,-0.047987498342990875
1771514687560528100,9.658528076171875,-0.19634999334812164,0.35186249017715454,-0.22426250576972961
1771514687580938500,9.6789384765625,-0.2755500078201294,0.14918750524520874,-0.3656125068664551
1771514687601346300,9.69934619140625,-0.45801249146461487,-0.2727999985218048,-0.6678375005722046
1771514687621754400,9.71975439453125,-0.4542999863624573,-0.27568748593330383,-1.0755250453948975
1771514687642164500,9.74016455078125,-0.5091624855995178,-0.3643749952316284,-1.1771374940872192
1771514687662573600,9.760573486328125,-0.344712495803833,0.002062499988824129,-1.3469499349594116
1771514687682984200,9.780984130859375,-0.31913748383522034,0.21587499976158142,-0.7984625101089478
1771514687703395000,9.80139501953125,-0.4094749987125397,0.16128750145435333,-0.36918750405311584
1771514687723804000,9.821803955078124,-0.4398624897003174,0.2441999912261963,0.16376249492168427
1771514687744214500,9.842214599609376,-0.6393749713897705,-0.0340999998152256,1.1012375354766846
1771514687764625200,9.862625244140625,-0.8768374919891357,-0.5894625186920166,1.0187374353408813
1771514687785036300,9.883036376953125,-0.7578999996185303,-0.5468375086784363,0.6161375045776367
1771514687805449500,9.903449462890626,-0.6080250144004822,-0.44673749804496765,0.3474625051021576
1771514687825863400,9.923863525390624,-0.7231125235557556,-0.8728500008583069,0.2727999985218048
1771514687846281000,9.944281005859375,-0.678974986076355,-1.1745250225067139,-0.3801875114440918
1771514687866698200,9.9646982421875,-0.1929125040769577,-0.5187875032424927,-1.1479874849319458
1771514687887114500,9.985114501953126,0.141075000166893,0.4647499918937683,-0.5226374864578247
1771514687907532300,10.0055322265625,0.3877499997615814,1.0403250455856323,-0.5658124685287476
1771514687927943400,10.025943359375,0.2964499890804291,0.848924994468689,-0.9604374766349792
1771514687948351200,10.046351318359376,0.33563750982284546,1.0696125030517578,-1.043624997138977
1771514687968762600,10.0667626953125,0.05953750014305115,0.7099124789237976,-0.8027250170707703
1771514687989174800,10.0871748046875,-0.22824999690055847,0.3436124920845032,-0.18053749203681946
1771514688009586000,10.1075859375,-0.11797499656677246,0.6337375044822693,-0.4442625045776367
1771514688029995500,10.12799560546875,0.007012499962002039,0.9752874970436096,0.12223749607801437
1771514688050405000,10.148405029296875,-0.1297999918460846,0.7414000034332275,1.0752500295639038
1771514688070818300,10.168818359375,-0.6745749711990356,-0.33646249771118164,1.1126500368118286
1771514688091230500,10.18923046875,-0.7826499938964844,-0.5644375085830688,0.6767749786376953
1771514688111637000,10.209636962890626,-0.5340499877929688,-0.03437500074505806,0.7638124823570251
1771514688132044800,10.230044921875,-0.5066875219345093,-0.027912499383091927,0.7393375039100647
1771514688152454100,10.2504541015625,-0.5202999711036682,-0.16967499256134033,0.2536875009536743
1771514688172863200,10.27086328125,-0.6726499795913696,-0.518512487411499,0.05596249923110008
1771514688193272600,10.2912724609375,-0.55673748254776,-0.4507249891757965,-0.39256250858306885
1771514688213680400,10.311680419921874,-0.17820000648498535,0.18095000088214874,-0.6304374933242798
1771514688234090500,10.332090576171876,0.029975000768899918,0.5849249958992004,-0.3405874967575073
1771514688254503000,10.3525029296875,-0.11178749799728394,0.27568748593330383,-0.6909375190734863
1771514688274911000,10.372910888671875,-0.17173749208450317,0.12264999747276306,-1.1412500143051147
1771514688295316200,10.393316162109375,-0.06338749825954437,0.36932501196861267,-1.3697749376296997
1771514688315723800,10.413723876953124,-0.17957499623298645,0.38692501187324524,-1.0723625421524048
1771514688336130600,10.434130615234375,-0.6890124678611755,-0.15537500381469727,-0.4596624970436096
1771514688356537900,10.454537841796874,-1.216599941253662,-0.5354250073432922,0.011412499472498894
1771514688376943900,10.47494384765625,-1.6829999685287476,-0.5581125020980835,0.38651248812675476
1771514688397349400,10.495349365234375,-2.428800106048584,-0.41552498936653137,-0.24268749356269836
1771514688417759200,10.51575927734375,-3.4534499645233154,0.22495000064373016,-0.8298124670982361
1771514688438171000,10.5361708984375,-4.295912265777588,0.5245624780654907,-0.0798875018954277
1771514688458580500,10.55658056640625,-4.606937408447266,0.6023874878883362,0.3623124957084656
1771514688478988000,10.576988037109375,-4.471912384033203,-0.3242250084877014,0.46117499470710754
1771514688499394800,10.597394775390624,-4.218362331390381,-0.9941250085830688,0.4334000051021576
1771514688519803400,10.617803466796875,-4.051162242889404,-1.5188249349594116,0.4314749836921692
1771514688540214800,10.63821484375,-3.8572874069213867,-1.5190999507904053,0.48042500019073486
1771514688560629200,10.658629150390626,-3.487687587738037,-0.64267498254776,0.4497624933719635
1771514688581043200,10.679043212890624,-2.963399887084961,0.5688375234603882,0.2796750068664551
1771514688601452300,10.699452392578126,-2.351525068283081,1.3928749561309814,-0.11082500219345093
1771514688621862000,10.71986181640625,-1.8661500215530396,1.6620999574661255,-0.4437125027179718
1771514688642271500,10.740271484375,-1.559387445449829,1.6164499521255493,-0.610087513923645
1771514688662683400,10.760683349609375,-1.308174967765808,1.2090375423431396,-0.7580375075340271
1771514688683095000,10.781094970703125,-1.3190374374389648,0.6208124756813049,-0.5798375010490417
1771514688703502000,10.801502197265625,-1.5292749404907227,0.9926124811172485,-0.10175000131130219
1771514688723907800,10.821907958984376,-1.8156875371932983,2.170574903488159,0.42198750376701355
1771514688744312300,10.842312255859374,-2.0799624919891357,2.738450050354004,0.9176750183105469
1771514688764715500,10.862715576171874,-1.901075005531311,1.7265875339508057,0.7283374667167664
1771514688785119200,10.883119140625,-1.7115999460220337,0.6829624772071838,0.49802500009536743
1771514688805524200,10.903524169921875,-1.7209500074386597,0.38609999418258667,0.4422000050544739
1771514688825930000,10.923929931640625,-1.9866000413894653,0.848924994468689,0.668524980545044
1771514688846334200,10.944334228515626,-2.296525001525879,1.0071874856948853,1.105912446975708
1771514688866741500,10.964741455078125,-2.29363751411438,0.31872498989105225,1.4073125123977661
1771514688887150600,10.985150634765626,-1.6757124662399292,-0.5302000045776367,1.0030624866485596
1771514688907558700,11.00555859375,-1.106874942779541,-0.6586250066757202,0.2820124924182892
1771514688927966500,11.025966552734374,-1.1244750022888184,-0.1882375031709671,-0.006737499963492155
1771514688948375800,11.046375732421875,-1.2046375274658203,0.03932499885559082,-0.0010999999940395355
1771514688968783000,11.066783203125,-0.8305000066757202,-0.2554749846458435,-0.1985500007867813
1771514688989187600,11.0871875,-0.2498375028371811,-0.6184750199317932,-0.5637499690055847
1771514689009595600,11.107595703125,0.20487499237060547,-0.6528499722480774,-0.9704750180244446
1771514689030003000,11.1280029296875,0.6524375081062317,-0.454025000333786,-1.572450041770935
1771514689050403600,11.148403564453124,1.013237476348877,-0.3235374987125397,-2.088624954223633
1771514689070802700,11.168802734375,1.049262523651123,-0.5307499766349792,-2.0703375339508057
1771514689091203600,11.18920361328125,0.6744375228881836,-0.7327374815940857,-1.4356374740600586
1771514689111605200,11.209605224609374,0.3185875117778778,-0.4534749984741211,-0.7694500088691711
1771514689132010800,11.2300107421875,0.19841249287128448,0.008662499487400055,-0.5079249739646912
1771514689152421600,11.250421630859375,0.23457500338554382,0.05829999968409538,-0.5183749794960022
1771514689172836000,11.270836181640625,0.4246000051498413,-0.15537500381469727,-0.75638747215271
1771514689193250300,11.291250244140626,0.5216749906539917,-0.4589749872684479,-0.7983250021934509
1771514689213660000,11.311659912109375,0.4441249966621399,-0.3971000015735626,-0.46021249890327454
1771514689234064400,11.332064453125,0.27857500314712524,0.2733500003814697,0.10793749988079071
1771514689254466600,11.352466552734375,-0.04028749838471413,0.11247500032186508,0.6667374968528748
1771514689274869500,11.372869384765625,-0.14822499454021454,0.2667500078678131,0.8331124782562256
1771514689295274200,11.393274169921876,0.023099999874830246,0.7398874759674072,0.5841000080108643
1771514689315678200,11.41367822265625,0.28008750081062317,0.697950005531311,0.33412501215934753
1771514689336080000,11.434079833984375,0.420199990272522,0.46997499465942383,0.2913624942302704
1771514689356483600,11.454483642578126,0.5318499803543091,0.6166874766349792,0.26221248507499695
1771514689376891100,11.47489111328125,0.8046500086784363,0.5033875107765198,0.022549999877810478
1771514689397298700,11.495298583984376,1.213712453842163,-0.3040125072002411,-0.4643374979496002
1771514689417702400,11.515702392578126,1.4841749668121338,-1.220312476158142,-0.8775249719619751
1771514689438103800,11.536103759765625,1.388474941253662,-1.7147624492645264,-0.8511250019073486
1771514689458511600,11.55651171875,1.2297999858856201,-1.8023500442504883,-0.6811749935150146
1771514689478923300,11.57692333984375,1.18607497215271,-1.7986375093460083,-0.6879125237464905
1771514689499334000,11.597333984375,1.2142624855041504,-1.0362000465393066,-0.81826251745224
1771514689519745300,11.617745361328126,1.3169749975204468,-0.25987499952316284,-0.8912749886512756
1771514689540152800,11.63815283203125,1.2179750204086304,0.34636250138282776,-0.6819999814033508
1771514689560559600,11.6585595703125,0.8034124970436096,0.5498625040054321,-0.16197499632835388
1771514689580968400,11.678968505859375,0.37853750586509705,0.5707625150680542,0.2694999873638153
1771514689601375500,11.69937548828125,0.018287500366568565,0.6198499798774719,0.5696625113487244
1771514689621780200,11.7197802734375,-0.5724124908447266,0.2287999987602234,1.0510499477386475
1771514689642184000,11.740183837890624,-0.9828500151634216,-0.3647874891757965,1.2567499876022339
1771514689662588700,11.760588623046875,-0.8604750037193298,-0.4969249963760376,0.9087374806404114
1771514689682995700,11.78099560546875,-0.534600019454956,-0.41071251034736633,0.4750624895095825
1771514689703400400,11.801400390625,-0.3735874891281128,-0.28008750081062317,0.25850000977516174
1771514689723801600,11.821801513671875,-0.4030124843120575,0.1260875016450882,0.2283875048160553
1771514689744202800,11.84220263671875,-0.38279998302459717,0.5893250107765198,0.24172499775886536
1771514689764604200,11.862604248046875,-0.24447499215602875,0.5687000155448914,0.15138749778270721
1771514689785005000,11.883005126953124,-0.09583749622106552,0.46035000681877136,0.0471624992787838
1771514689805205200,11.903205322265626,-0.04853750020265579,0.3950375020503998,0.0038499999791383743
1771514689815511300,11.91351123046875,-0.0775500014424324,0.2634499967098236,-0.008112499490380287
1771514689836020500,11.9340205078125,-0.1695374995470047,0.1461624950170517,0.08524999767541885
1771514689856428800,11.9544287109375,-0.16238750517368317,0.04124999791383743,0.13103750348091125
1771514689876833800,11.974833740234375,-0.05555000156164169,-0.227974995970726,0.01251249946653843
1771514689897234700,11.995234619140625,0.11329999566078186,-0.6023874878883362,-0.23319999873638153
1771514689917636000,12.015635986328125,0.09047500044107437,-0.9162999987602234,-0.30896249413490295
1771514689938038800,12.036038818359375,-0.12622499465942383,-1.058750033378601,-0.13722500205039978
1771514689958443500,12.056443603515625,-0.2817375063896179,-0.8392999768257141,-0.02488750033080578
1771514689978848800,12.076848876953125,-0.2633124887943268,-0.3451249897480011,-0.10670000314712524
1771514689999251000,12.0972509765625,-0.12870000302791595,0.04675000160932541,-0.24433749914169312
1771514690019649500,12.1176494140625,0.02186249941587448,0.24722500145435333,-0.3606624901294708
1771514690040049700,12.138049560546875,0.17861250042915344,0.39627498388290405,-0.5106750130653381
1771514690060453600,12.15845361328125,0.2891624867916107,0.45278748869895935,-0.650237500667572
1771514690080857900,12.17885791015625,0.27073749899864197,0.2825624942779541,-0.6012874841690063
1771514690101260300,12.19926025390625,0.16651250422000885,0.10477499663829803,-0.3760625123977661
1771514690121664000,12.2196640625,0.026537500321865082,0.17503750324249268,-0.1036750003695488
1771514690142068500,12.240068359375,-0.15427500009536743,0.31267499923706055,0.19167499244213104
1771514690162471700,12.2604716796875,-0.36079999804496765,0.3396250009536743,0.5121874809265137
1771514690182878200,12.280878173828125,-0.5321249961853027,0.2690874934196472,0.7650499939918518
1771514690203290600,12.30129052734375,-0.5790125131607056,0.14396250247955322,0.8369625210762024
1771514690223702300,12.321702392578125,-0.5425750017166138,0.002749999985098839,0.7580375075340271
1771514690244107800,12.342107666015625,-0.3301374912261963,0.05692499876022339,0.2529999911785126
1771514690264509700,12.362509765625,-0.08937499672174454,0.2563000023365021,-0.28984999656677246
1771514690284913200,12.3829130859375,0.05128749832510948,0.3254624903202057,-0.6305750012397766
1771514690305320400,12.403320556640624,0.05816249921917915,0.19126249849796295,-0.7081249952316284
1771514690325729000,12.42372900390625,-0.03203750029206276,0.05004999786615372,-0.6148999929428101
1771514690346137600,12.4441376953125,-0.1396999955177307,0.15399999916553497,-0.5451874732971191
1771514690366545400,12.46454541015625,-0.23925000429153442,0.3361875116825104,-0.46860000491142273
1771514690386953000,12.484952880859375,-0.30387499928474426,0.4819374978542328,-0.31171250343322754
1771514690407359500,12.505359375,-0.36355000734329224,0.5570124983787537,-0.08318749815225601
1771514690427764000,12.525763916015626,-0.48262500762939453,0.5340499877929688,0.1775124967098236
1771514690448168700,12.546168701171876,-0.48606249690055847,0.6015625,0.23746250569820404
1771514690468574500,12.566574462890625,-0.4375250041484833,0.6584874987602234,0.2106499969959259
1771514690488979000,12.58697900390625,-0.5669124722480774,0.3870624899864197,0.43505001068115234
1771514690509384700,12.607384765625,-0.8013499975204468,-0.25437501072883606,0.8755999803543091
1771514690529790700,12.627790771484374,-0.8812375068664551,-0.803137481212616,1.0675499439239502
1771514690550197800,12.64819775390625,-0.7349374890327454,-0.911899983882904,0.8372374773025513
1771514690570603500,12.668603515625,-0.4078249931335449,-0.612012505531311,0.3624500036239624
1771514690591003400,12.68900341796875,-0.06888750195503235,-0.1303499937057495,-0.11384999752044678
1771514690611408000,12.709407958984375,0.14024999737739563,0.195250004529953,-0.39214998483657837
1771514690631812600,12.7298125,0.22907499969005585,0.1695374995470047,-0.47148749232292175
1771514690652211200,12.750211181640625,0.14630000293254852,-0.2579500079154968,-0.21986250579357147
1771514690672610300,12.7706103515625,-0.07150000333786011,-0.9241374731063843,0.3227125108242035
1771514690693012200,12.79101220703125,-0.16843749582767487,-1.3010250329971313,0.6077499985694885
1771514690713417200,12.811417236328126,0.028187500312924385,-0.8837124705314636,0.3100624978542328
1771514690733825000,12.831824951171875,0.24296249449253082,-0.20377500355243683,0.04427500069141388
1771514690754229200,12.852229248046875,0.1658249944448471,0.32725000381469727,0.22866250574588776
1771514690774630400,12.87263037109375,-0.6810374855995178,0.5091624855995178,1.2912625074386597
1771514690795033000,12.893033203125,-0.8540124893188477,0.2545124888420105,1.5358749628067017
1771514690815433500,12.91343359375,-0.23237499594688416,0.1447875052690506,0.781962513923645
1771514690835834000,12.933834228515625,0.7301250100135803,0.14643749594688416,0.12581250071525574
1771514690856236500,12.954236572265625,1.346537470817566,0.07218749821186066,-0.37248748540878296
1771514690876639000,12.974638916015625,1.5017750263214111,-0.006599999964237213,-0.696987509727478
1771514690897040400,12.995040283203124,1.3396625518798828,-0.07012499868869781,-0.6440500020980835
1771514690917442600,13.015442626953124,1.0874874591827393,-0.20487499237060547,-0.48276248574256897
1771514690937850400,13.035850341796875,0.8711999654769897,-0.5446375012397766,-0.3158375024795532
1771514690958260200,13.05626025390625,0.7012500166893005,-1.1698499917984009,-0.1648624986410141
1771514690978663000,13.076662841796875,0.6154500246047974,-1.640375018119812,-0.15702499449253082
1771514690999061200,13.097061279296875,0.610087513923645,-1.4693249464035034,-0.234437495470047
1771514691019459800,13.1174599609375,0.6650875210762024,-0.7001500129699707,-0.3414124846458435
1771514691039860700,13.13786083984375,0.7027624845504761,0.19401249289512634,-0.44673749804496765
1771514691060265500,13.158265380859374,0.6883249878883362,0.830637514591217,-0.4563624858856201
1771514691080671500,13.17867138671875,0.6204000115394592,1.1112749576568604,-0.38005000352859497
1771514691101080300,13.199080322265624,0.5440874695777893,1.0537999868392944,-0.2890250086784363
1771514691121486300,13.219486328125,0.42748749256134033,0.7275124788284302,-0.17586250603199005
1771514691141890300,13.239890380859375,0.08016250282526016,0.11604999750852585,0.19085000455379486
1771514691162293500,13.26029345703125,-0.39434999227523804,-0.696987509727478,0.7691749930381775
1771514691182693600,13.280693603515624,-0.41029998660087585,-0.8673499822616577,0.805062472820282
1771514691203094000,13.301093994140626,-0.1597750037908554,-0.22343750298023224,0.3998500108718872
1771514691223496700,13.32149658203125,-0.1368124932050705,0.5618249773979187,0.24818749725818634
1771514691243902500,13.34190234375,-0.26124998927116394,1.3480499982833862,0.43697500228881836
1771514691264304400,13.362304443359376,-0.44632500410079956,2.3799874782562256,0.7907624840736389
1771514691284704300,13.382704345703125,-0.3357749879360199,2.4584999084472656,0.6313999891281128
1771514691305105400,13.40310546875,0.08992499858140945,1.9885250329971313,-0.012924999929964542
1771514691325510100,13.42351025390625,0.6639875173568726,1.0045750141143799,-1.068237543106079
1771514691345919200,13.443919189453124,1.0532499551773071,-0.16499999165534973,-1.976699948310852
1771514691366325000,13.464324951171875,1.1617374420166016,-0.9751499891281128,-2.302025079727173
1771514691386726100,13.48472607421875,1.0022374391555786,-1.2689875364303589,-2.0201499462127686
1771514691407129000,13.505129150390625,0.6448749899864197,-1.3573999404907227,-1.4011249542236328
1771514691427535000,13.52553515625,0.17311249673366547,-1.5012249946594238,-0.5803874731063843
1771514691447940000,13.545940185546876,-0.32477501034736633,-1.5684624910354614,0.31597501039505005
1771514691468343000,13.566343017578125,-0.6556000113487244,-1.3356750011444092,0.9248250126838684
1771514691488743400,13.586743408203125,-0.7972249984741211,-0.9275749921798706,1.1648999452590942
1771514691509142800,13.607142822265626,-0.8251374959945679,-0.4281750023365021,1.1961125135421753
1771514691529543700,13.627543701171875,-0.7911750078201294,0.1223749965429306,1.1004124879837036
1771514691549945000,13.647945068359375,-0.771512508392334,0.6245250105857849,1.0082875490188599
1771514691570346500,13.668346435546875,-0.6972625255584717,1.174662470817566,0.8731250166893005
1771514691590749700,13.688749755859375,-0.5531625151634216,1.4654749631881714,0.6488624811172485
1771514691611155200,13.7091552734375,-0.45141249895095825,1.0844625234603882,0.5072374939918518
1771514691631562500,13.7295625,-0.3750999867916107,0.30428749322891235,0.432574987411499
1771514691651969800,13.7499697265625,-0.16871249675750732,-0.3147374987602234,0.15674999356269836
1771514691672380000,13.7703798828125,0.19744999706745148,-0.550000011920929,-0.3807374835014343
1771514691692792300,13.790792236328125,0.6153125166893005,-0.49802500009536743,-0.951912522315979
1771514691713203700,13.81120361328125,0.8955374956130981,-0.37056249380111694,-1.2893375158309937
1771514691733617400,13.831617431640625,0.9498500227928162,-0.2250874936580658,-1.3371875286102295
1771514691754027800,13.85202783203125,0.8189499974250793,-0.049912501126527786,-1.1374000310897827
1771514691774433300,13.872433349609375,0.38321250677108765,-0.05128749832510948,-0.4478375017642975
1771514691794837000,13.8928369140625,0.05898749828338623,-0.2974124848842621,0.040837500244379044
1771514691815243300,13.9132431640625,-0.12581250071525574,-0.44302499294281006,0.37991249561309814
1771514691835652900,13.93365283203125,-0.1863124966621399,-0.3712500035762787,0.5420249700546265
1771514691856061000,13.95406103515625,-0.21188749372959137,-0.21133749186992645,0.6045874953269958
1771514691876465400,13.97446533203125,-0.2414499968290329,-0.0424874983727932,0.676087498664856
1771514691896867800,13.994867919921875,-0.2513499855995178,0.18081249296665192,0.742775022983551
1771514691917272000,14.01527197265625,-0.17627499997615814,0.3591499924659729,0.6854375004768372
1771514691937678800,14.035678955078126,0.0765874981880188,0.44852501153945923,0.34911251068115234
1771514691958086100,14.056086181640625,0.3480125069618225,0.3759250044822693,-0.08030000329017639
1771514691978490000,14.076489990234375,0.4100250005722046,0.18095000088214874,-0.30744999647140503
1771514691998892800,14.096892822265625,0.3161124885082245,0.037675000727176666,-0.31652501225471497
1771514692019300900,14.11730078125,0.1849374920129776,-0.05156249925494194,-0.22522500157356262
1771514692039714000,14.137714111328124,0.0625625029206276,-0.09473749995231628,-0.17668749392032623
1771514692060123400,14.158123291015626,-0.0005499999970197678,-0.04936249926686287,-0.18617500364780426
1771514692080529400,14.178529296875,-0.06710000336170197,-0.04922499880194664,-0.13612499833106995
1771514692100940300,14.198940185546874,-0.2447499930858612,-0.17778749763965607,0.03863750025629997
1771514692121356800,14.219356689453125,-0.44714999198913574,-0.3367374837398529,0.25093749165534973
1771514692141775000,14.239775146484375,-0.5972999930381775,-0.5058624744415283,0.42157500982284546
1771514692162189300,14.260189208984375,-0.634975016117096,-0.6547750234603882,0.46639999747276306
1771514692182600400,14.280600341796875,-0.45787498354911804,-0.5303375124931335,0.2827000021934509
1771514692203011300,14.30101123046875,-0.23897500336170197,-0.14932499825954437,0
1771514692223423700,14.321423828125,-0.09652499854564667,0.2927374839782715,-0.1812250018119812
1771514692243835100,14.341835205078125,-0.0016499999910593033,0.7530875205993652,-0.21559999883174896
1771514692264244500,14.362244384765624,-0.019112499430775642,1.12681245803833,-0.040562499314546585
1771514692284655600,14.382655517578126,-0.10999999940395355,0.9953625202178955,0.19731250405311584
1771514692305065000,14.40306494140625,-0.19813749194145203,0.7475875020027161,0.4680500030517578
1771514692325471700,14.4234716796875,-0.2605625092983246,0.3642374873161316,0.6393749713897705
1771514692345882600,14.443882568359374,-0.1293874979019165,-0.1863124966621399,0.41263750195503235
1771514692366293500,14.46429345703125,0.16224999725818634,-0.6140750050544739,-0.09556250274181366
1771514692386701300,14.484701416015625,0.36176249384880066,-0.7897999882698059,-0.4394499957561493
1771514692407110100,14.505110107421874,0.420199990272522,-0.7143124938011169,-0.544362485408783
1771514692427519000,14.52551904296875,0.4954124987125397,-0.37757501006126404,-0.6558749675750732
1771514692447926500,14.545926513671875,0.5783249735832214,-0.0919874981045723,-0.8075374960899353
1771514692468330200,14.566330322265625,0.6395124793052673,-0.1237500011920929,-1.0036125183105469
1771514692488733400,14.5867333984375,0.5626500248908997,-0.37894999980926514,-1.0280874967575073
1771514692509137700,14.6071376953125,0.30002498626708984,-0.5696625113487244,-0.6752625107765198
1771514692529541000,14.627541015625,-0.0085249999538064,-0.48042500019073486,-0.17132499814033508
1771514692549944600,14.647944580078125,-0.15496249496936798,-0.20295000076293945,0.16926249861717224
1771514692570350800,14.668350830078126,-0.15289999544620514,0.0873124971985817,0.3258749842643738
1771514692590758400,14.68875830078125,-0.2190375030040741,0.3862375020980835,0.4811125099658966
1771514692611167000,14.7091669921875,-0.37564998865127563,0.7321875095367432,0.6752625107765198
1771514692631574500,14.729574462890625,-0.42996248602867126,1.037850022315979,0.7155500054359436
1771514692651976200,14.74997607421875,-0.32161250710487366,1.0740125179290771,0.5128750205039978
1771514692672381200,14.770381103515625,-0.1541374921798706,0.7540500164031982,0.2134000062942505
1771514692692793300,14.79079345703125,0.030112499371170998,0.3091000020503998,-0.06421250104904175
1771514692713204200,14.811204345703125,0.1391499936580658,-0.0387750007212162,-0.2059749960899353
1771514692733610200,14.8316103515625,0.11921250075101852,-0.2796750068664551,-0.1545500010251999
1771514692754019600,14.85201953125,0.06792499870061874,-0.44811248779296875,-0.04675000160932541
1771514692774430700,14.8724306640625,0.2050125002861023,-0.5145249962806702,-0.15606249868869781
1771514692794839600,14.892839599609376,0.31404998898506165,-0.42748749256134033,-0.30566251277923584
1771514692815251500,14.91325146484375,0.29067498445510864,-0.3363249897956848,-0.305525004863739
1771514692835660300,14.933660400390625,0.1443749964237213,-0.2120250016450882,-0.09377499669790268
1771514692856063500,14.9540634765625,-0.05238749831914902,-0.09913749992847443,0.20569999516010284
1771514692876466700,14.974466796875,-0.15001249313354492,-0.042762499302625656,0.3188624978065491
1771514692896873200,14.994873291015624,-0.10051249712705612,0.014574999921023846,0.20666250586509705
1771514692917282600,15.015282470703125,-0.005912499967962503,0.13021250069141388,0.06984999775886536
1771514692937694000,15.03569384765625,0.035475000739097595,0.2605625092983246,0.03863750025629997
1771514692958107400,15.056107421875,0.007149999961256981,0.28847500681877136,0.08689999580383301
1771514692978518000,15.07651806640625,-0.09006249904632568,0.17118750512599945,0.2167000025510788
1771514692998925800,15.09692578125,-0.15523749589920044,0.0004124999977648258,0.3097875118255615
1771514693019338000,15.117337890625,-0.06503749638795853,-0.10298749804496765,0.19731250405311584
1771514693039750000,15.13775,0.07837499678134918,-0.16073749959468842,-0.00976249948143959
1771514693060157700,15.15815771484375,0.13942499458789825,-0.10312499850988388,-0.10147500038146973
1771514693080566800,15.17856689453125,0.09735000133514404,0.08483749628067017,-0.03368749842047691
1771514693100979700,15.198979736328125,0.0494999997317791,0.3162499964237213,-0.0035749999806284904
1771514693121395200,15.219395263671874,0.10051249712705612,0.40232500433921814,-0.17215000092983246
1771514693141810000,15.239809814453125,0.20281249284744263,0.23498749732971191,-0.44206249713897705
1771514693162217200,15.26021728515625,0.24997499585151672,-0.004537499975413084,-0.6087124943733215
1771514693182620700,15.28062060546875,0.16554999351501465,-0.22151249647140503,-0.4973374903202057
1771514693203025400,15.301025390625,-0.015124999918043613,-0.391462504863739,-0.2063875049352646
1771514693223432000,15.321431884765625,-0.09858749806880951,-0.4351874887943268,-0.006049999967217445
1771514693243840300,15.34184033203125,-0.030249999836087227,-0.36616250872612,-0.04097500070929527
1771514693264245800,15.362245849609375,0.07590000331401825,-0.19415000081062317,-0.23003749549388885
1771514693284652500,15.382652587890625,0.08579999953508377,-0.045649997889995575,-0.26317501068115234
1771514693305064200,15.403064208984375,0.07727500051259995,0.0835999995470047,-0.28187498450279236
1771514693325477600,15.4234775390625,0.12540000677108765,0.1839749962091446,-0.4207499921321869
1771514693345890800,15.443890869140626,0.22824999690055847,0.17806249856948853,-0.6765000224113464
1771514693366300400,15.464300537109375,0.2956250011920929,0.052937500178813934,-0.8421875238418579
1771514693386707700,15.484707763671874,0.2143625020980835,-0.06201250106096268,-0.7034500241279602
1771514693407115800,15.50511572265625,0.012649999931454659,-0.07975000143051147,-0.30483749508857727
1771514693427523800,15.52552392578125,-0.1821874976158142,-0.0906125009059906,0.08841250091791153
1771514693447933400,15.545933349609374,-0.19181250035762787,-0.052662499248981476,0.19923749566078186
1771514693468347000,15.566346923828124,-0.058024998754262924,0.08621250092983246,0.08153750002384186
1771514693488759800,15.586759765625,0.016224998980760574,0.1989624947309494,0.00013749999925494194
1771514693509170000,15.607169921875,-0.018287500366568565,0.2624875009059906,0.06104999780654907
1771514693529579800,15.627579833984376,-0.07163749635219574,0.3676750063896179,0.13241249322891235
1771514693549990000,15.647989990234375,-0.03492499887943268,0.4881249964237213,0.05953750014305115
1771514693570400500,15.668400390625,0.08291249722242355,0.47671249508857727,-0.07837499678134918
1771514693590812400,15.6888125,0.10779999941587448,0.33192500472068787,-0.08195000141859055
1771514693611223600,15.7092236328125,0.08621250092983246,0.2008875012397766,0.04647500067949295
1771514693631634400,15.729634521484375,0.06544999778270721,0.02983750030398369,0.17861250042915344
1771514693652047600,15.750047607421875,0.03671250119805336,-0.2774749994277954,0.20006249845027924
1771514693672461600,15.770461669921875,0.13089999556541443,-0.5489000082015991,0.008937500417232513
1771514693692873500,15.79087353515625,0.20982499420642853,-0.6230124831199646,-0.12168750166893005
1771514693713286000,15.811285888671875,0.25753748416900635,-0.4351874887943268,-0.1451999992132187
1771514693733698800,15.83169873046875,0.32903748750686646,-0.14011250436306,-0.2063875049352646
1771514693754114000,15.852114013671875,0.3063499927520752,-0.022549999877810478,-0.21216249465942383
1771514693774527000,15.87252685546875,0.09336250275373459,-0.21972499787807465,-0.016637500375509262
1771514693794936300,15.892936279296874,-0.06503749638795853,-0.3102000057697296,0.14190000295639038
1771514693815343900,15.91334375,-0.18287499248981476,-0.2798124849796295,0.3092375099658966
1771514693835750000,15.93375,-0.27623748779296875,-0.10628750175237656,0.467912495136261
1771514693856155100,15.954155029296874,-0.320374995470047,0.09171249717473984,0.5072374939918518
1771514693876561400,15.9745615234375,-0.20116250216960907,0.3016749918460846,0.28421249985694885
1771514693896969700,15.9949697265625,0.04647500067949295,0.5145249962806702,-0.1200374960899353
1771514693917379300,16.01537939453125,0.22536249458789825,0.6261749863624573,-0.3797749876976013
1771514693937790000,16.0357900390625,0.2167000025510788,0.600600004196167,-0.3499374985694885
1771514693958201600,16.05620166015625,0.010449999943375587,0.32862499356269836,-0.10257499665021896
1771514693978612000,16.076612060546875,-0.11783749610185623,-0.035337500274181366,0.020762499421834946
1771514693999021000,16.09702099609375,-0.04001250118017197,-0.21834999322891235,-0.14409999549388885
1771514694019429600,16.1174296875,0.09129999577999115,-0.18576249480247498,-0.35694998502731323
1771514694039837700,16.137837646484375,0.14602500200271606,-0.023237500339746475,-0.4171749949455261
1771514694060246300,16.158246337890624,0.1568875014781952,0.10422500222921371,-0.3273875117301941
1771514694080656100,16.17865625,0.14162500202655792,0.038362499326467514,-0.20762500166893005
1771514694101066500,16.19906640625,0.021175000816583633,-0.28132501244544983,-0.06929999589920044
1771514694121477600,16.2194775390625,-0.13433749973773956,-0.6043124794960022,0.09583749622106552
1771514694141887200,16.23988720703125,-0.21889999508857727,-0.5823125243186951,0.19882500171661377
1771514694162298600,16.260298583984376,-0.2326499968767166,-0.2619374990463257,0.2503874897956848
1771514694182709500,16.28070947265625,-0.28008750081062317,0.08882500231266022,0.37207499146461487
1771514694203115000,16.301114990234375,-0.30744999647140503,0.3258749842643738,0.5168625116348267
1771514694223521800,16.321521728515624,-0.21326249837875366,0.4511374831199646,0.5087500214576721
1771514694243930000,16.34193017578125,0.0952875018119812,0.44013750553131104,0.14300000667572021
1771514694264335400,16.36233544921875,0.33371248841285706,0.44577500224113464,-0.1816374957561493
1771514694284742400,16.382742431640626,0.4731374979019165,0.4078249931335449,-0.36588749289512634
1771514694305152000,16.403152099609375,0.3632749915122986,0.1714625060558319,-0.2525874972343445
1771514694325560800,16.423560791015625,0.08153750002384186,-0.13474999368190765,0.05362499877810478
1771514694345971500,16.443971435546874,-0.06544999778270721,-0.2630375027656555,0.19126249849796295
1771514694366380000,16.464380126953124,-0.20363749563694,-0.4846875071525574,0.2810499966144562
1771514694386788000,16.4847880859375,-0.12787500023841858,-0.46915000677108765,0.07232499867677689
1771514694407196200,16.505196044921874,0.16788749396800995,-0.1681624948978424,-0.3665750026702881
1771514694427597800,16.525597900390625,0.3755125105381012,-0.036024998873472214,-0.6646749973297119
1771514694447997700,16.545997802734377,0.4094749987125397,-0.11316250264644623,-0.74566251039505
1771514694468401400,16.5664013671875,0.2110625058412552,-0.2997500002384186,-0.5446375012397766
1771514694488808400,16.586808349609374,-0.040562499314546585,-0.40383750200271606,-0.2521750032901764
1771514694509215200,16.60721533203125,-0.0952875018119812,-0.33329999446868896,-0.15399999916553497
1771514694529625600,16.62762548828125,-0.07961250096559525,-0.22151249647140503,-0.07150000333786011
1771514694550038300,16.648038330078126,-0.38183748722076416,-0.13901250064373016,0.4684624969959259
1771514694570447400,16.668447265625,-0.7261375188827515,0.14451250433921814,1.1027499437332153
1771514694590856400,16.6888564453125,-0.734250009059906,0.39201250672340393,1.21646249294281
1771514694611265300,16.709265380859375,-0.593037486076355,0.1518000066280365,0.9706124663352966
1771514694631673900,16.729673828125,-0.45526251196861267,-0.28558748960494995,0.7271000146865845
1771514694652080400,16.750080322265624,-0.15331250429153442,-0.2241249978542328,0.3306874930858612
1771514694672485400,16.7704853515625,0.17544999718666077,0.027499999850988388,-0.06063750013709068
1771514694692891400,16.790891357421874,0.2662000060081482,0.08346249908208847,-0.12732499837875366
1771514694713298400,16.81129833984375,0.10903749614953995,0.11357499659061432,0.15867500007152557
1771514694733709800,16.831709716796876,-0.2110625058412552,0.13557499647140503,0.7049624919891357
1771514694754122000,16.8521220703125,-0.4343625009059906,0.08153750002384186,1.0675499439239502
1771514694774530300,16.8725302734375,-0.3020874857902527,-0.045375000685453415,0.9134125113487244
1771514694794939000,16.89293896484375,-0.16802500188350677,-0.09129999577999115,0.7987374663352966
1771514694815350300,16.913350341796875,-0.12072499841451645,-0.02213750034570694,0.7961249947547913
1771514694835764000,16.933763916015625,-0.15207499265670776,0.14217500388622284,0.8357250094413757
1771514694856176000,16.954176025390623,-0.1405249983072281,0.18700000643730164,0.7264124751091003
1771514694876586200,16.974586181640625,0.05953750014305115,0.07699999958276749,0.2703250050544739
1771514694896996600,16.99499658203125,0.4156624972820282,0.0016499999910593033,-0.43133750557899475
1771514694917406200,17.01540625,0.6564249992370605,-0.09047500044107437,-0.8883875012397766
1771514694937815600,17.035815673828125,0.7583125233650208,-0.09418749809265137,-1.0950499773025513
1771514694958224000,17.056223876953126,0.7464874982833862,-0.07273750007152557,-1.120212435722351
1771514694978634000,17.076634033203124,0.6017000079154968,-0.2096875011920929,-0.9697874784469604
1771514694999046400,17.09704638671875,0.4713499844074249,-0.36217498779296875,-0.7961249947547913
1771514695019461400,17.11746142578125,0.33178749680519104,-0.4012250006198883,-0.5795624852180481
1771514695039874800,17.137874755859375,0.16128750145435333,-0.29782500863075256,-0.2853125035762787
1771514695060286200,17.1582861328125,0.008662499487400055,-0.0448249988257885,-0.006187499966472387
1771514695080695300,17.1786953125,-0.08208750188350677,0.23828749358654022,0.1443749964237213
1771514695101099800,17.199099853515627,-0.14547500014305115,0.30250000953674316,0.2523125112056732
1771514695121505000,17.219505126953123,-0.23526249825954437,0.1414874941110611,0.3984749913215637
1771514695141911600,17.23991162109375,-0.29026249051094055,-0.10408750176429749,0.4442625045776367
1771514695162321000,17.26032080078125,-0.16871249675750732,-0.25657498836517334,0.1611499935388565
1771514695182733000,17.280733154296875,0.01732499897480011,-0.28929999470710754,-0.21821250021457672
1771514695203145200,17.301145263671874,0.10642500221729279,-0.24365000426769257,-0.3777124881744385
1771514695223559400,17.321559326171876,0.1260875016450882,-0.14464999735355377,-0.37812501192092896
1771514695243972600,17.34197265625,0.048262499272823334,-0.2513499855995178,-0.26840001344680786
1771514695264381700,17.362381591796876,-0.10284999758005142,-0.3854124844074249,-0.16541250050067902
1771514695284789200,17.382789306640625,-0.2377374917268753,-0.2829749882221222,-0.14423750340938568
1771514695305194000,17.403194091796873,-0.3349500000476837,0.006737499963492155,-0.2022625058889389
1771514695325597000,17.423596923828125,-0.4511374831199646,0.2910875082015991,-0.17833749949932098
1771514695346004700,17.444004638671874,-0.6264500021934509,0.4996750056743622,0.06613750010728836
1771514695366210000,17.4642099609375,-0.7325999736785889,0.6051374673843384,0.2653749883174896
1771514695376518100,17.47451806640625,-0.8920999765396118,0.8519499897956848,0.6360750198364258
1771514695397030700,17.49503076171875,-0.8390250205993652,1.0268499851226807,0.6991875171661377
1771514695417441300,17.515441162109376,-0.5680124759674072,0.9770749807357788,0.44481250643730164
1771514695437853200,17.535853271484374,-0.20748749375343323,0.8133124709129333,0.10518749803304672
1771514695458262800,17.5562626953125,0.06627500057220459,0.5468375086784363,-0.02681249938905239
1771514695478669600,17.576669677734376,0.27816250920295715,0.15496249496936798,-0.047987498342990875
1771514695499075800,17.597075927734377,0.5674625039100647,-0.1891999989748001,-0.3096500039100647
1771514695519481600,17.617481689453125,0.8494749665260315,-0.4351874887943268,-0.7022125124931335
1771514695539887400,17.637887451171874,0.9752874970436096,-0.6197124719619751,-0.8680375218391418
1771514695560293000,17.658293212890626,0.906125009059906,-0.6260374784469604,-0.6879125237464905
1771514695580698000,17.678697998046875,0.679937481880188,-0.5142499804496765,-0.2965874969959259
1771514695601106400,17.6991064453125,0.4507249891757965,-0.43793749809265137,-0.03464999794960022
1771514695621517800,17.719517822265626,0.36176249384880066,-0.2437874972820282,-0.10491249710321426
1771514695641925400,17.73992529296875,0.32202500104904175,0.0672374963760376,-0.24062499403953552
1771514695662331600,17.76033154296875,0.1993750035762787,0.3679499924182892,-0.11261250078678131
1771514695682740000,17.780739990234373,-0.04166249930858612,0.48413750529289246,0.2593249976634979
1771514695703148800,17.801148681640626,-0.258774995803833,0.3489750027656555,0.5240125060081482
1771514695723556900,17.821556884765624,-0.24791249632835388,0.164450004696846,0.4133250117301941
1771514695743966200,17.84196630859375,-0.1214125007390976,0.06435000151395798,0.17036250233650208
1771514695764374000,17.8623740234375,-0.21931250393390656,0.05156249925494194,0.3082749843597412
1771514695784779800,17.88277978515625,-0.36602500081062317,0.04895000159740448,0.5436750054359436
1771514695805185300,17.903185302734375,-0.3198249936103821,0.11976250261068344,0.4281750023365021
1771514695825589800,17.92358984375,-0.04441250115633011,0.2217874974012375,-0.07644999772310257
1771514695845995300,17.943995361328124,0.2134000062942505,0.1999250054359436,-0.5411999821662903
1771514695866404900,17.96440478515625,0.30882498621940613,0.12815000116825104,-0.6549124717712402
1771514695886816000,17.98481591796875,0.21216249465942383,0.06435000151395798,-0.3726249933242798
1771514695907224300,18.005224365234376,0.03987500071525574,-0.04179999977350235,0.02241249941289425
1771514695927631600,18.025631591796873,-0.040150001645088196,-0.18314999341964722,0.13420000672340393
1771514695948038100,18.0460380859375,-0.04372499883174896,-0.38128748536109924,0.02488750033080578
1771514695968447000,18.066447021484375,-0.03657500073313713,-0.39311251044273376,-0.028875000774860382
1771514695988855300,18.086855224609376,-0.1237500011920929,-0.14409999549388885,0.14217500388622284
1771514696009257500,18.107257568359376,-0.2946625053882599,0.014299999922513962,0.47437500953674316
1771514696029661000,18.127660888671876,-0.38513749837875366,0.06228749826550484,0.6088500022888184
1771514696050068700,18.14806884765625,-0.3022249937057495,0.11522500216960907,0.36313748359680176
1771514696070477600,18.1684775390625,-0.07906249910593033,0.1531749963760376,-0.028462499380111694
1771514696090884000,18.188884033203124,0.11453749984502792,0.2679874897003174,-0.3068999946117401
1771514696111291100,18.209291015625,0.1788875013589859,0.4427500069141388,-0.38885000348091125
1771514696131699200,18.22969921875,0.1658249944448471,0.43505001068115234,-0.37619999051094055
1771514696152104400,18.2501044921875,0.14973749220371246,0.13144999742507935,-0.3881624937057495
1771514696172511200,18.27051123046875,0.09446249902248383,-0.3788124918937683,-0.3806000053882599
1771514696192917200,18.290917236328124,0.020349999889731407,-0.7735750079154968,-0.33178749680519104
1771514696213323300,18.3113232421875,0.05678749829530716,-0.7774249911308289,-0.32999998331069946
1771514696233730800,18.331730712890625,0.18741250038146973,-0.3030500113964081,-0.43092501163482666
1771514696254139100,18.35213916015625,0.23691250383853912,-0.09611249715089798,-0.477400004863739
1771514696274550000,18.372550048828124,0.15661250054836273,0.23649999499320984,-0.3091000020503998
1771514696294956500,18.39295654296875,-0.09583749622106552,0.23594999313354492,0.09693749994039536
1771514696315363800,18.41336376953125,-0.2424124926328659,0.30524998903274536,0.3485625088214874
1771514696335773400,18.4337734375,-0.3543374836444855,0.2868250012397766,0.5487625002861023
1771514696356183300,18.454183349609377,-0.46021249890327454,0.2022625058889389,0.7635374665260315
1771514696376595700,18.474595703125,-0.6014249920845032,0.30153748393058777,1.0711250305175781
1771514696397010000,18.495010009765625,-0.8687250018119812,0.5427125096321106,1.5633749961853027
1771514696417425700,18.51542578125,-1.1207624673843384,0.6861249804496765,1.9347624778747559
1771514696437836300,18.535836181640626,-0.911899983882904,0.6098124980926514,1.5670875310897827
1771514696458245000,18.5562451171875,-0.22990000247955322,0.46584999561309814,0.4702500104904175
1771514696478657800,18.57665771484375,0.4185499846935272,0.39338749647140503,-0.5429875254631042
1771514696499070500,18.597070556640624,0.7889750003814697,0.406312495470047,-1.0788249969482422
1771514696519481300,18.6174814453125,1.050362467765808,0.4189625084400177,-1.3803625106811523
1771514696539890000,18.637889892578126,1.3085875511169434,0.25148749351501465,-1.6340500116348267
1771514696560300800,18.65830078125,1.4412750005722046,-0.23361249268054962,-1.8865000009536743
1771514696580715800,18.6787158203125,1.4313750267028809,-0.8241750001907349,-2.0960500240325928
1771514696601131300,18.69913134765625,1.271875023841858,-1.1884125471115112,-2.0266125202178955
1771514696621544000,18.7195439453125,0.7033125162124634,-1.5035624504089355,-1.2604625225067139
1771514696641954800,18.739954833984374,-0.5627874732017517,-2.178962469100952,0.42858749628067017
1771514696662365700,18.76036572265625,-1.0694749355316162,-2.178687572479248,1.1636625528335571
1771514696682776000,18.780776123046873,-0.49912500381469727,-1.2508374452590942,0.5167250037193298
1771514696703186200,18.801186279296875,-0.06641250103712082,-0.4969249963760376,-0.005087499972432852
1771514696723597000,18.82159716796875,0.03162499889731407,0.04427500069141388,-0.013062499463558197
1771514696744007400,18.84200732421875,-0.06764999777078629,0.6710000038146973,0.29906249046325684
1771514696764420600,18.862420654296876,-0.3451249897480011,1.301300048828125,0.7386500239372253
1771514696784833500,18.88283349609375,-0.3807374835014343,1.1423499584197998,0.6184750199317932
1771514696805242600,18.90324267578125,-0.35420000553131104,0.6400625109672546,0.3606624901294708
1771514696825650700,18.923650634765625,-0.3443000018596649,0.17173749208450317,0.14739999175071716
1771514696846058500,18.94405859375,-0.3133625090122223,0.22068749368190765,0.10821250081062317
1771514696866470700,18.964470703125,-0.27445000410079956,0.6104999780654907,0.17063750326633453
1771514696886886000,18.984885986328123,-0.2358125001192093,0.8739500045776367,0.16541250050067902
1771514696907301400,19.00530126953125,-0.12952500581741333,0.8349000215530396,0.026262499392032623
1771514696927713500,19.025713623046876,-0.011274999938905239,0.5857499837875366,-0.14258749783039093
1771514696948125200,19.046125244140626,0.035612501204013824,0.279262512922287,-0.23127499222755432
1771514696968536000,19.0665361328125,0.04936249926686287,-0.10642500221729279,-0.344712495803833
1771514696988944600,19.086944580078125,0.10821250081062317,-0.4090625047683716,-0.5164499878883362
1771514697009355000,19.10735498046875,0.1999250054359436,-0.4600749909877777,-0.6355249881744385
1771514697029765600,19.127765625,0.2666124999523163,-0.40369999408721924,-0.6396499872207642
1771514697050176000,19.148176025390626,0.30346250534057617,-0.3185875117778778,-0.5928999781608582
1771514697070584800,19.168584716796875,0.3063499927520752,-0.22439999878406525,-0.5341874957084656
1771514697090991600,19.18899169921875,0.27857500314712524,-0.1284250020980835,-0.44948750734329224
1771514697111401000,19.20940087890625,0.1845249980688095,-0.06655000150203705,-0.284074991941452
1771514697131816200,19.229816162109376,-0.02227500081062317,-0.07479999959468842,0.006874999962747097
1771514697152235500,19.250235595703124,-0.2529999911785126,-0.1396999955177307,0.2858625054359436
1771514697172651500,19.270651611328127,-0.3221625089645386,-0.14093749225139618,0.342787504196167
1771514697193064200,19.291064208984373,-0.1597750037908554,-0.062424998730421066,0.15496249496936798
1771514697213475000,19.31147509765625,0.025437500327825546,0.035750001668930054,-0.08428750187158585
1771514697233885000,19.331885009765625,0.06324999779462814,0.03437500074505806,-0.12086249887943268
1771514697254293000,19.35229296875,-0.19139999151229858,-0.29438748955726624,0.1368124932050705
1771514697274698800,19.37269873046875,-0.24433749914169312,-0.5025625228881836,0.12292499840259552
1771514697295105300,19.393105224609375,-0.03217500075697899,-0.49390000104904175,-0.17503750324249268
1771514697315509800,19.413509765625,0.20886249840259552,-0.3777124881744385,-0.49623748660087585
1771514697335913700,19.433913818359375,0.18507499992847443,-0.22027499973773956,-0.44481250643730164
1771514697356319000,19.454319091796876,0.0015124999918043613,0.0008249999955296516,-0.09611249715089798
1771514697376726500,19.4747265625,-0.0742499977350235,0.21587499976158142,0.0966624990105629
1771514697397139000,19.495138916015627,0.013749999925494194,0.3443000018596649,-0.00989999994635582
1771514697417555000,19.515554931640626,0.05939999967813492,0.40617498755455017,-0.07397499680519104
1771514697437972200,19.53597216796875,0.048262499272823334,0.5370749831199646,0.02199999988079071
1771514697458385000,19.556385009765624,0.04262499883770943,0.6654999852180481,0.14327499270439148
1771514697478792200,19.576792236328124,-0.03368749842047691,0.5487625002861023,0.26977500319480896
1771514697499199000,19.597198974609373,-0.1373624950647354,0.21834999322891235,0.3320625126361847
1771514697519606300,19.617606201171874,-0.052799999713897705,-0.09281250089406967,0.1069749966263771
1771514697540013300,19.638013427734375,0.17448750138282776,-0.3480125069618225,-0.27156248688697815
1771514697560420900,19.6584208984375,0.28366249799728394,-0.5208500027656555,-0.43601250648498535
1771514697580827600,19.67882763671875,0.17352500557899475,-0.5259374976158142,-0.2835249900817871
1771514697601233400,19.6992333984375,0.02213750034570694,-0.3723500072956085,-0.03657500073313713
1771514697621637600,19.7196376953125,-0.05389999970793724,-0.2563000023365021,0.06132499873638153
1771514697642045400,19.74004541015625,-0.04179999977350235,-0.19580000638961792,0.03478749841451645
1771514697662455600,19.76045556640625,0.018287500366568565,0.04633750021457672,0.01223750039935112
1771514697682862300,19.7808623046875,0.08346249908208847,0.43326249718666077,0.0826374962925911
1771514697703272000,19.80127197265625,0.0317624993622303,0.6290624737739563,0.297962486743927
1771514697723683600,19.82168359375,-0.05829999968409538,0.4797374904155731,0.39201250672340393
1771514697744096800,19.8420966796875,0.01966249942779541,0.25561249256134033,0.1985500007867813
1771514697764507600,19.862507568359376,0.13832500576972961,0.12526249885559082,-0.030524998903274536
1771514697784915500,19.88291552734375,0.21546250581741333,0.04262499883770943,-0.18603749573230743
1771514697805326000,19.903326171875,0.19249999523162842,-0.029975000768899918,-0.16362500190734863
1771514697825737200,19.9237373046875,0.1069749966263771,-0.10161250084638596,-0.012924999929964542
1771514697846147800,19.94414794921875,0.010999999940395355,-0.23430000245571136,0.11233749985694885
1771514697866554400,19.964554443359376,-0.04441250115633011,-0.39311251044273376,0.07535000145435333
1771514697886960600,19.984960693359376,0.01746249943971634,-0.4105750024318695,-0.07975000143051147
1771514697907372000,20.0053720703125,0.11715000122785568,-0.25946250557899475,-0.17668749392032623
1771514697927783000,20.025782958984376,0.10683749616146088,-0.04179999977350235,-0.06792499870061874
1771514697948189700,20.046189697265625,0.013749999925494194,0.11275000125169754,0.16664999723434448
1771514697968593000,20.066593017578125,0.05348749831318855,0.21078750491142273,0.1685750037431717
1771514697988995300,20.086995361328125,0.1704999953508377,0.11783749610185623,-0.04702499881386757
1771514698009398000,20.10739794921875,0.2605625092983246,0.030524998903274536,-0.24117499589920044
1771514698029800700,20.12780078125,0.2171124964952469,0.11948750168085098,-0.21752500534057617
1771514698050203000,20.148202880859376,0.018149999901652336,0.16830000281333923,-0.02928750030696392
1771514698070605600,20.16860546875,-0.09721250087022781,0.09790000319480896,0.05857500061392784
1771514698091007700,20.1890078125,-0.09803749620914459,-0.009349999949336052,0.0016499999910593033
1771514698111410400,20.209410400390624,-0.03973750025033951,-0.03135000169277191,-0.09858749806880951
1771514698131813000,20.229813232421876,-0.011274999938905239,0.02736249938607216,-0.12911249697208405
1771514698152217300,20.25021728515625,-0.01952499896287918,0.12031249701976776,-0.05101250112056732
1771514698172624600,20.270624755859377,-0.0728750005364418,0.16224999725818634,0.13488750159740448
1771514698193032700,20.29103271484375,-0.15289999544620514,0.09927500039339066,0.3227125108242035
1771514698213438700,20.311438720703126,-0.10903749614953995,0.10284999758005142,0.32257500290870667
1771514698233842200,20.33184228515625,0.012924999929964542,0.15853749215602875,0.1788875013589859
1771514698254244600,20.35224462890625,0.09556250274181366,0.13199999928474426,0.1023000031709671
1771514698274647000,20.37264697265625,0.030249999836087227,0.08030000329017639,0.22907499969005585
1771514698295049700,20.3930498046875,-0.10147500038146973,-0.07081250101327896,0.3624500036239624
1771514698315450600,20.41345068359375,-0.17723749577999115,-0.2994749844074249,0.30882498621940613
1771514698335852300,20.433852294921873,-0.055687498301267624,-0.4235000014305115,0.0031624999828636646
1771514698356255700,20.454255859375,0.15812499821186066,-0.30717501044273376,-0.32436248660087585
1771514698376658200,20.474658203125,0.3207874894142151,-0.08483749628067017,-0.5095750093460083
1771514698397059300,20.495059326171877,0.3445749878883362,-0.0042624999769032,-0.5343250036239624
1771514698417460000,20.5154599609375,0.21312500536441803,-0.11921250075101852,-0.3891249895095825
1771514698437862100,20.535862060546876,0.02241249941289425,-0.3302749991416931,-0.13144999742507935
1771514698458266000,20.55626611328125,-0.0742499977350235,-0.4255625009536743,0.012649999931454659
1771514698478670300,20.57667041015625,0.02227500081062317,-0.2798124849796295,-0.04688749834895134
1771514698499073500,20.597073486328124,0.1732500046491623,-0.03712499886751175,-0.17613749206066132
1771514698519477000,20.61747705078125,0.2741749882698059,0.14904999732971191,-0.27114999294281006
1771514698539878700,20.637878662109376,0.19978749752044678,0.15523749589920044,-0.18988749384880066
1771514698560278800,20.65827880859375,-0.12732499837875366,-0.10724999755620956,0.15936249494552612
1771514698580681700,20.678681640625,-0.4151124954223633,-0.4212999939918518,0.4384874999523163
1771514698601087200,20.699087158203124,-0.4575999975204468,-0.5068249702453613,0.42061248421669006
1771514698621492500,20.719492431640624,-0.3144625127315521,-0.28833749890327454,0.22082500159740448
1771514698641899000,20.73989892578125,-0.0775500014424324,0.18576249480247498,-0.025712499395012856
1771514698662308400,20.760308349609375,0.16802500188350677,0.6774625182151794,-0.16472500562667847
1771514698682718200,20.78071826171875,0.20886249840259552,0.8676249980926514,-0.05169999971985817
1771514698703124700,20.801124755859377,0.043037500232458115,0.6353874802589417,0.14698749780654907
1771514698723532000,20.821531982421874,-0.05142499879002571,0.22783750295639038,0.12196250259876251
1771514698743940600,20.841940673828127,-0.06132499873638153,-0.10284999758005142,0.016499999910593033
1771514698764344800,20.8623447265625,0.01251249946653843,-0.06407500058412552,0.03231250122189522
1771514698784751600,20.882751708984376,0.10573749989271164,0.18741250038146973,0.05444999784231186
1771514698805156400,20.90315625,0.11151249706745148,0.23801249265670776,0.09776250272989273
1771514698825560000,20.92356005859375,0.11288750171661377,0.06764999777078629,0.04977500066161156
1771514698845965000,20.943965087890625,0.12044999748468399,-0.2498375028371811,-0.09418749809265137
1771514698866366000,20.964365966796876,0.05692499876022339,-0.6646749973297119,-0.1639000028371811
1771514698886766000,20.98476611328125,0.0317624993622303,-0.8784874677658081,-0.2059749960899353
1771514698907168800,21.005168701171876,0.1802625060081482,-0.6481750011444092,-0.34732499718666077
1771514698927571200,21.0255712890625,0.3287625014781952,-0.24901250004768372,-0.4016374945640564
1771514698947967200,21.04596728515625,0.16788749396800995,0.005224999971687794,-0.08813749998807907
1771514698968360700,21.066360595703124,-0.113987497985363,0.14781250059604645,0.32615000009536743
1771514698988757800,21.0867578125,-0.18975000083446503,0.22769999504089355,0.40411248803138733
1771514699009158700,21.10715869140625,-0.2232999950647354,0.17572499811649323,0.357637494802475
1771514699029559000,21.12755908203125,-0.32862499356269836,0.15839999914169312,0.43642500042915344
1771514699049958100,21.147958251953124,-0.32903748750686646,0.37578749656677246,0.4595249891281128
1771514699070357200,21.168357177734375,-0.33137500286102295,0.5266249775886536,0.4684624969959259
1771514699090755000,21.188755126953126,-0.5807999968528748,0.2881999909877777,0.7045499682426453
1771514699111153700,21.209153564453125,-0.9612625241279602,-0.2143625020980835,1.0469249486923218
1771514699131552500,21.229552490234376,-1.023687481880188,-0.5053125023841858,0.9663500189781189
1771514699151947500,21.249947509765626,-0.7372750043869019,-0.4526500105857849,0.46254998445510864
1771514699172343800,21.27034375,-0.3016749918460846,-0.047712501138448715,-0.21051250398159027
1771514699192742400,21.290742431640624,0.10106249898672104,0.49197500944137573,-0.7884249687194824
1771514699213141800,21.311141845703126,0.34540000557899475,0.8177124857902527,-1.0461000204086304
1771514699233540400,21.331540283203125,0.3686375021934509,0.8120750188827515,-0.9410499930381775
1771514699253938700,21.351938720703124,-0.07535000145435333,0.24034999310970306,-0.2784374952316284
1771514699274339300,21.37233935546875,-0.8325625061988831,-0.8083624839782715,0.8093249797821045
1771514699294739700,21.39273974609375,-0.8486499786376953,-0.9993500113487244,0.949162483215332
1771514699315140000,21.41314013671875,-0.5730999708175659,-0.7343875169754028,0.7541875243186951
1771514699335540000,21.4335400390625,-0.2732124924659729,-0.2433750033378601,0.562375009059906
1771514699355939600,21.453939697265625,-0.16554999351501465,0.32436248660087585,0.5948249697685242
1771514699376339200,21.474339111328124,-0.304562509059906,0.7730249762535095,0.9589250087738037
1771514699396737000,21.494737060546875,-0.555774986743927,0.7367249727249146,1.4078625440597534
1771514699417134600,21.515134521484374,-0.29205000400543213,0.24172499775886536,1.0195624828338623
1771514699437534200,21.5355341796875,0.5363875031471252,0.1200374960899353,-0.22247499227523804
1771514699457935000,21.55593505859375,1.1005499362945557,0.1251250058412552,-1.099174976348877
1771514699478333400,21.57633349609375,1.2593624591827393,0.0085249999538064,-1.4224375486373901
1771514699498732300,21.596732177734374,1.3776124715805054,0.10903749614953995,-1.698812484741211
1771514699519132000,21.6171318359375,1.4047000408172607,0.21601249277591705,-1.7400624752044678
1771514699539530800,21.63753076171875,1.1760375499725342,-0.022962499409914017,-1.4147374629974365
1771514699559930600,21.6579306640625,0.7863624691963196,-0.4536125063896179,-1.0498124361038208
1771514699580327700,21.67832763671875,0.29919999837875366,-0.699874997138977,-0.49018749594688416
1771514699600727600,21.6987275390625,-0.5016000270843506,-0.8098750114440918,0.6804875135421753
1771514699621131000,21.719131103515625,-1.0011374950408936,-0.952049970626831,1.3631750345230103
1771514699641534500,21.739534423828125,-0.6399250030517578,-0.7717875242233276,0.8453499674797058
1771514699661940000,21.75993994140625,-0.32477501034736633,-0.49486249685287476,0.4409624934196472
1771514699682348300,21.780348388671875,-0.43188750743865967,-0.06187500059604645,0.6892874836921692
1771514699702762000,21.800761962890626,-0.6047250032424927,0.6360750198364258,1.0803375244140625
1771514699723175700,21.82117578125,-0.6056874990463257,1.0671374797821045,1.1571999788284302
1771514699743587000,21.841587158203126,-0.2737624943256378,1.1262625455856323,0.6613749861717224
1771514699763997000,21.861996826171875,0.2703250050544739,0.7159624695777893,-0.24365000426769257
1771514699784405200,21.8824052734375,0.3964124917984009,0.4049375057220459,-0.5355625152587891
1771514699804812000,21.90281201171875,0.38279998302459717,0.23938749730587006,-0.5674625039100647
1771514699825214200,21.923214111328125,0.17311249673366547,0.10670000314712524,-0.254925012588501
1771514699845613800,21.94361376953125,-0.19139999151229858,-0.1387374997138977,0.2657875120639801
1771514699866013200,21.96401318359375,-0.34718748927116394,-0.5160375237464905,0.41222500801086426
1771514699886412800,21.984412841796875,-0.13557499647140503,-0.7567999958992004,0.030249999836087227
1771514699906814000,22.00481396484375,0.12278749793767929,-0.6881874799728394,-0.34306249022483826
1771514699927214600,22.025214599609374,0.2404875010251999,-0.3698749840259552,-0.4246000051498413
1771514699947615700,22.04561572265625,0.24681249260902405,-0.009074999950826168,-0.32284998893737793
1771514699968019700,22.066019775390625,0.2110625058412552,0.142037495970726,-0.1788875013589859
1771514699988423000,22.0864228515625,0.2110625058412552,0.007562499959021807,-0.08717499673366547
1771514700008826000,22.106826171875,0.14698749780654907,-0.29301249980926514,0.03258749842643738
1771514700029232600,22.127232666015626,0.0317624993622303,-0.4916999936103821,0.22811250388622284
1771514700049639400,22.147639404296875,-0.09583749622106552,-0.49101248383522034,0.45526251196861267
1771514700070044200,22.168044189453123,-0.28984999656677246,-0.44247499108314514,0.7198125123977661
1771514700090445800,22.18844580078125,-0.31913748383522034,-0.2050125002861023,0.7106000185012817
1771514700110840600,22.208840576171873,-0.07947500050067902,0.15826250612735748,0.3891249895095825
1771514700131234000,22.229234130859375,0.2503874897956848,0.44811248779296875,-0.0976250022649765
1771514700151628800,22.24962890625,0.5319874882698059,0.5878124833106995,-0.6115999817848206
1771514700172023300,22.270023193359375,0.6632999777793884,0.5627874732017517,-0.8949875235557556
1771514700192422000,22.290421875,0.6630250215530396,0.46970000863075256,-0.9788625240325928
1771514700212825000,22.3108251953125,0.6274124979972839,0.29411250352859497,-0.9784500002861023
1771514700233227300,22.331227294921874,0.5149375200271606,0.050324998795986176,-0.8855000138282776
1771514700253628400,22.35162841796875,0.34072500467300415,-0.07576250284910202,-0.6620625257492065
1771514700274030000,22.372030029296877,-0.002337499987334013,-0.15633749961853027,-0.03382499888539314
1771514700294431000,22.392430908203124,-0.22522500157356262,-0.2774749994277954,0.4278999865055084
1771514700314833000,22.4128330078125,-0.5307499766349792,-0.590149998664856,0.8772500157356262
1771514700335236900,22.43323681640625,-0.5803874731063843,-0.7096375226974487,0.8626750111579895
1771514700355644200,22.45364404296875,-0.4422000050544739,-0.4394499957561493,0.6124249696731567
1771514700376053200,22.47405322265625,-0.3544749915599823,-0.040837500244379044,0.5021499991416931
1771514700396460800,22.494460693359375,-0.2974124848842621,0.427762508392334,0.47189998626708984
1771514700416865800,22.51486572265625,-0.29205000400543213,0.9316999912261963,0.5603125095367432
1771514700437268500,22.5352685546875,-0.3051125109195709,1.3277000188827515,0.6705874800682068
1771514700457675300,22.55567529296875,-0.3926999866962433,1.3162875175476074,0.7699999809265137
1771514700478081800,22.576081787109374,-0.49390000104904175,0.6766374707221985,0.8166124820709229
1771514700498486000,22.596486083984374,-0.31459999084472656,-0.24213749170303345,0.5130124688148499
1771514700518890500,22.616890380859374,0.02708750031888485,-0.966487467288971,-0.018975000828504562
1771514700539290600,22.63729052734375,0.18754999339580536,-1.3083125352859497,-0.26179999113082886
1771514700559687400,22.6576875,0.2569875121116638,-1.0988999605178833,-0.30799999833106995
1771514700580087000,22.678087158203127,0.42844998836517334,-0.49334999918937683,-0.4965125024318695
1771514700600491000,22.698490966796875,0.6441875100135803,-0.0170499999076128,-0.8181250095367432
1771514700620892400,22.718892333984375,0.8278874754905701,0.1821874976158142,-1.1871750354766846
1771514700641293800,22.7392939453125,0.9505375027656555,0.23732499778270721,-1.4592875242233276
1771514700661698000,22.759697998046875,0.8533250093460083,-0.05087500065565109,-1.4148750305175781
1771514700682101500,22.7801015625,0.5714499950408936,-0.7002875208854675,-1.198312520980835
1771514700702507500,22.800507568359375,0.2913624942302704,-1.218387484550476,-0.9802374839782715
1771514700722915000,22.8209150390625,0.03657500073313713,-1.290987491607666,-0.6191624999046326
1771514700743322600,22.841322509765625,-0.11178749799728394,-0.9107999801635742,-0.20845000445842743
1771514700763729000,22.86172900390625,-0.36024999618530273,-0.15963749587535858,0.5625125169754028
1771514700784132900,22.8821328125,-0.7170624732971191,0.1083500012755394,1.2335125207901
1771514700804537600,22.90253759765625,-1.099174976348877,0.1518000066280365,1.7821375131607056
1771514700824943000,22.922943115234375,-0.9682750105857849,0.4456374943256378,1.5637874603271484
1771514700845349400,22.943349365234376,-0.5208500027656555,0.7070249915122986,0.8711999654769897
1771514700865754600,22.963754638671876,-0.23704999685287476,0.7253124713897705,0.37564998865127563
1771514700886157000,22.984156982421876,-0.08277499675750732,0.871749997138977,0.13571250438690186
1771514700906559500,23.0045595703125,-0.004537499975413084,1.107699990272522,0.06902500241994858
1771514700926965200,23.02496533203125,0.16706250607967377,1.0891374349594116,-0.17448750138282776
1771514700947370500,23.04537060546875,0.4581499993801117,0.5895999670028687,-0.7180249691009521
1771514700967773000,23.06577294921875,0.608299970626831,-0.2264624983072281,-1.1932250261306763
1771514700988176600,23.0861767578125,0.492249995470047,-0.9058499932289124,-1.2280124425888062
1771514701008580600,23.10658056640625,0.22632500529289246,-1.1061874628067017,-0.806024968624115
1771514701028984600,23.126984619140625,0.0034374999813735485,-0.8809624910354614,-0.3335750102996826
1771514701049391600,23.1473916015625,0.047849997878074646,-0.3694624900817871,-0.2367749959230423
1771514701069797600,23.167797607421875,0.17311249673366547,0.0705375000834465,-0.27403751015663147
1771514701090203400,23.188203369140624,0.037950001657009125,0.28228750824928284,0.006462499964982271
1771514701110611500,23.208611572265625,-0.31088748574256897,0.45182499289512634,0.5923500061035156
1771514701131017500,23.229017578125,-0.5638874769210815,0.5741999745368958,0.9997624754905701
1771514701151421200,23.249421142578125,-0.4507249891757965,0.6228749752044678,0.8188124895095825
1771514701171824400,23.269824462890625,-0.18878750503063202,0.5609999895095825,0.3778499960899353
1771514701192232000,23.29023193359375,-0.025437500327825546,0.5293750166893005,0.13695000112056732
1771514701212638200,23.31063818359375,0.01677500084042549,0.7376874685287476,0.21559999883174896
1771514701233038800,23.331038818359374,-0.09047500044107437,0.9385749697685242,0.5645750164985657
1771514701253439200,23.351439208984374,-0.28654998540878296,0.6887375116348267,0.9200124740600586
1771514701273843200,23.37184326171875,-0.22481249272823334,-0.23732499778270721,0.695062518119812
1771514701294248000,23.392248046875,0.03135000169277191,-0.5208500027656555,0.22728750109672546
1771514701314649000,23.412649169921874,0.19442500174045563,-0.4179999828338623,-0.05884999781847
1771514701335049500,23.433049560546873,0.2186249941587448,-0.03231250122189522,-0.16472500562667847
1771514701355451000,23.453450927734377,0.2788499891757965,0.3889875113964081,-0.2681249976158142
1771514701375851500,23.4738515625,0.509850025177002,0.48592498898506165,-0.609125018119812
1771514701396253400,23.49425341796875,0.8262374997138977,0.15537500381469727,-1.2666499614715576
1771514701416656400,23.514656494140624,1.028499960899353,-0.5138375163078308,-1.9331125020980835
1771514701437059800,23.535059814453124,0.9646999835968018,-1.2931874990463257,-2.247849941253662
1771514701457462300,23.555462158203124,0.6892874836921692,-1.778975009918213,-2.1164000034332275
1771514701477862400,23.5758623046875,0.3913249969482422,-1.7019749879837036,-1.6178250312805176
1771514701498261000,23.596260986328126,0.0849749967455864,-1.3677124977111816,-0.9378874897956848
1771514701518662700,23.61666259765625,-0.306487500667572,-1.2489124536514282,-0.2671625018119812
1771514701539068000,23.63706787109375,-0.7367249727249146,-1.1455124616622925,0.428725004196167
1771514701559474700,23.657474609375,-1.1074249744415283,-0.7100499868392944,1.1206250190734863
1771514701579879200,23.677879150390623,-1.304324984550476,-0.0742499977350235,1.5053499937057495
1771514701600275700,23.698275634765626,-1.3292125463485718,0.6018375158309937,1.5008125305175781
1771514701620670700,23.718670654296876,-1.2583999633789062,1.3483250141143799,1.299649953842163
1771514701641071900,23.73907177734375,-1.174662470817566,2.0801000595092773,1.1089375019073486
1771514701661476600,23.7594765625,-1.0929875373840332,2.6087875366210938,0.9344499707221985
1771514701681881600,23.779881591796876,-0.9448999762535095,2.7037999629974365,0.6466624736785889
1771514701702285800,23.800285888671876,-0.7193999886512756,2.1946375370025635,0.2274249941110611
1771514701722692400,23.8206923828125,-0.5148000121116638,1.2548249959945679,-0.1798499971628189
1771514701743101700,23.841101806640626,-0.4487999975681305,0.142037495970726,-0.3825249969959259
1771514701763509500,23.861509521484376,-0.4423374831676483,-0.8431500196456909,-0.45416250824928284
1771514701783917000,23.8819169921875,-0.16321249306201935,-1.4819749593734741,-0.8281624913215637
1771514701804321000,23.902321044921877,0.047712501138448715,-1.4187250137329102,-0.9754250049591064
1771514701824722400,23.922722412109376,0.13557499647140503,-1.145650029182434,-0.8560749888420105
1771514701845126700,23.943126708984376,0.045237500220537186,-0.7895249724388123,-0.4676375091075897
1771514701865537800,23.963537841796875,-0.20913749933242798,-0.44907498359680176,0.07122500240802765
1771514701885952800,23.983952880859373,-0.38513749837875366,-0.1872749924659729,0.4104374945163727
1771514701906362400,24.0043623046875,-0.29631251096725464,-0.040150001645088196,0.320374995470047
1771514701926767600,24.024767578125,-0.06902500241994858,-0.04001250118017197,0.08744999766349792
1771514701947172900,24.0451728515625,0.06943749636411667,0.02474999986588955,0.04262499883770943
1771514701967579600,24.06557958984375,0.11604999750852585,0.2480500042438507,0.16802500188350677
1771514701987989000,24.085989013671874,0.2718375027179718,0.5139750242233276,0.164450004696846
1771514702008401200,24.106401123046876,0.5713124871253967,0.7174749970436096,-0.042762499302625656
1771514702028810200,24.126810302734373,0.7958499789237976,0.7203624844551086,-0.23485000431537628
1771514702049215200,24.14721533203125,0.8251374959945679,0.6254875063896179,-0.26592499017715454
1771514702069618400,24.167618408203126,0.7226999998092651,0.533637523651123,-0.15125000476837158
1771514702090019800,24.188019775390625,0.5374875068664551,0.3371500074863434,0.02667500078678131
1771514702110420000,24.208419921875,0.3363249897956848,-0.03382499888539314,0.1812250018119812
1771514702130819600,24.228819580078124,0.19167499244213104,-0.4384874999523163,0.24213749170303345
1771514702151218400,24.249218505859375,0.15056249499320984,-0.6338750123977661,0.1681624948978424
1771514702171617300,24.2696171875,0.2759625017642975,-0.44343748688697815,-0.05376249924302101
1771514702192018400,24.290018310546873,0.3573625087738037,-0.06503749638795853,-0.17379999160766602
1771514702212420000,24.310420166015625,0.32243749499320984,0.28792500495910645,-0.1280124932527542
1771514702232820500,24.330820556640624,0.30016249418258667,0.5396875143051147,-0.11618749797344208
1771514702253218300,24.35121826171875,0.21656249463558197,0.4866124987602234,-0.11522500216960907
1771514702273614000,24.371614013671874,0.042899999767541885,0.2283875048160553,-0.031075000762939453
1771514702294009000,24.392009033203124,0.032862499356269836,0.1264999955892563,-0.04661250114440918
1771514702314405000,24.412405029296874,0.2952125072479248,0.4020499885082245,-0.382937490940094
1771514702334802700,24.432802734375,0.3078624904155731,0.514662504196167,-0.3909125030040741
1771514702355203800,24.453203857421876,0.2957625091075897,0.5460125207901001,-0.3564000129699707
1771514702375609000,24.473609130859376,0.2887499928474426,0.36217498779296875,-0.40755000710487366
1771514702396015400,24.494015380859373,0.3166624903678894,-0.10147500038146973,-0.6177874803543091
1771514702416420000,24.514420166015626,0.4207499921321869,-0.5370749831199646,-0.894712507724762
1771514702436824600,24.534824462890626,0.5062749981880188,-0.6833750009536743,-1.050362467765808
1771514702457228800,24.555228759765626,0.5720000267028809,-0.5676000118255615,-1.0738749504089355
1771514702477628200,24.575628173828125,0.5523374676704407,-0.4355999827384949,-0.9583749771118164
1771514702498026500,24.596026611328124,0.32477501034736633,-0.4314749836921692,-0.6271374821662903
1771514702518426000,24.616426025390624,-0.06104999780654907,-0.525112509727478,-0.10752499848604202
1771514702538826200,24.636826171875,-0.3008500039577484,-0.5439500212669373,0.31212499737739563
1771514702559232500,24.657232421875,-0.2718375027179718,-0.3946250081062317,0.4258374869823456
1771514702579639600,24.6776396484375,-0.16568750143051147,-0.17544999718666077,0.40658751130104065
1771514702600043800,24.698043701171876,-0.1313125044107437,0.06297499686479568,0.48633748292922974
1771514702620447700,24.71844775390625,-0.11728750169277191,0.30882498621940613,0.5836874842643738
1771514702640854000,24.73885400390625,0.05444999784231186,0.467912495136261,0.4339500069618225
1771514702661262000,24.759261962890626,0.2381500005722046,0.3390749990940094,0.15496249496936798
1771514702681667600,24.77966748046875,0.25052499771118164,0.06875000149011612,0.05926249921321869
1771514702702070800,24.80007080078125,0.21463750302791595,-0.053075000643730164,0.0775500014424324
1771514702722469600,24.8204697265625,0.29122498631477356,-0.0340999998152256,-0.002749999985098839
1771514702742866700,24.84086669921875,0.4179999828338623,-0.014574999921023846,-0.14836250245571136
1771514702763267300,24.861267333984376,0.49348750710487366,-0.026124998927116394,-0.23100000619888306
1771514702783669800,24.881669677734376,0.48358750343322754,-0.0004124999977648258,-0.16788749396800995
1771514702804071400,24.902071533203124,0.4246000051498413,0.025575000792741776,-0.07768750190734863
1771514702824474000,24.92247412109375,0.23100000619888306,0.032862499356269836,0.1317249983549118
1771514702844880400,24.94288037109375,-0.0387750007212162,0.029424998909235,0.44769999384880066
1771514702865292500,24.96329248046875,-0.1634874939918518,0.01979999989271164,0.4904625117778778
1771514702885702700,24.98370263671875,-0.1083500012755394,-0.0672374963760376,0.19139999151229858
1771514702906105300,25.004105224609376,-0.09913749992847443,-0.1722874939441681,-0.048124998807907104
1771514702926504000,25.02450390625,-0.1340624988079071,-0.19552500545978546,-0.10559999942779541
1771514702946904600,25.044904541015626,-0.11027500033378601,-0.1522125005722046,-0.11178749799728394
1771514702967308500,25.06530859375,-0.03217500075697899,-0.05211250111460686,-0.14767499268054962
1771514702987714600,25.085714599609375,0.037812501192092896,0.10711249709129333,-0.16266250610351562
1771514703008121300,25.106121337890624,0.05444999784231186,0.23787499964237213,-0.10559999942779541
1771514703028525300,25.126525390625,0.014987500384449959,0.2623499929904938,-0.03189999982714653
1771514703048928000,25.146927978515624,-0.03217500075697899,0.2498375028371811,0.04702499881386757
1771514703069328600,25.16732861328125,-0.15111249685287476,0.2662000060081482,0.2624875009059906
1771514703089730800,25.187730712890627,-0.38005000352859497,0.30566251277923584,0.6650875210762024
1771514703110136300,25.20813623046875,-0.583549976348877,0.2656500041484833,0.9957749843597412
1771514703130541000,25.228541015625,-0.5923500061035156,0.13750000298023224,0.9600250124931335
1771514703150945500,25.248945556640624,-0.41772499680519104,0.02969999983906746,0.6428124904632568
1771514703171349000,25.269348876953124,-0.1956624984741211,0.047849997878074646,0.30855000019073486
1771514703191752200,25.289752197265624,0.04331250116229057,0.23319999873638153,0.035887498408555984
1771514703212159700,25.31015966796875,0.25093749165534973,0.3392125070095062,-0.20776249468326569
1771514703232567600,25.330567626953126,0.42281249165534973,0.2583625018596649,-0.4683249890804291
1771514703252976400,25.350976318359375,0.4542999863624573,-0.03437500074505806,-0.6232874989509583
1771514703273385700,25.3713857421875,0.40369999408721924,-0.3305499851703644,-0.64267498254776
1771514703293790200,25.391790283203125,0.44756248593330383,-0.3667125105857849,-0.6012874841690063
1771514703314193000,25.41219287109375,0.46915000677108765,-0.11426249891519547,-0.3741374909877777
1771514703334597400,25.432597412109374,0.38266250491142273,0.06201250106096268,-0.14231249690055847
