time,seconds_elapsed,z,y,x
1771514678253882000,0.351882080078125,10.183950424194336,1.3990501165390015,-2.0059502124786377
1771514678264087600,0.362087646484375,10.222050666809082,1.4130001068115234,-1.9270501136779785
1771514678284292600,0.382292724609375,10.16295051574707,1.336050033569336,-1.7239500284194946
1771514678294601700,0.392601806640625,10.105050086975098,1.3050000667572021,-1.5630000829696655
1771514678315117600,0.41311767578125,10.17495059967041,1.2649500370025635,-1.3860000371932983
1771514678335529700,0.43352978515625,10.21500015258789,1.1980500221252441,-1.2930001020431519
1771514678355944000,0.45394384765625,10.318050384521484,1.2790501117706299,-1.4650501012802124
1771514678376360000,0.47435986328125,10.483050346374512,1.3200000524520874,-1.5180001258850098
1771514678396773600,0.494773681640625,10.80405044555664,1.3129500150680542,-1.5150001049041748
1771514678417188400,0.515188232421875,10.735050201416016,1.2619500160217285,-1.503000020980835
1771514678437605600,0.535605712890625,10.488000869750977,1.360050082206726,-1.4940000772476196
1771514678458024200,0.556024169921875,10.234050750732422,1.4299501180648804,-1.7170500755310059
1771514678478443300,0.576443359375,10.12695026397705,1.4989501237869263,-1.7449500560760498
1771514678498862000,0.596862060546875,10.01205062866211,1.4899500608444214,-1.6950000524520874
1771514678519284000,0.617283935546875,9.910950660705566,1.495050072669983,-1.6300500631332397
1771514678539707400,0.637707275390625,9.885000228881836,1.4970000982284546,-1.8169500827789307
1771514678560125000,0.658125,9.841950416564941,1.4830501079559326,-1.8790501356124878
1771514678580543000,0.67854296875,9.92805004119873,1.4250000715255737,-1.9369500875473022
1771514678600959700,0.698959716796875,10.096050262451172,1.3960500955581665,-1.9420500993728638
1771514678621375500,0.71937548828125,10.051950454711914,1.3960500955581665,-1.755000114440918
1771514678641792800,0.739792724609375,10.21500015258789,1.2889500856399536,-1.5610500574111938
1771514678662211800,0.7602119140625,10.333050727844238,1.165950059890747,-1.5870001316070557
1771514678682631700,0.780631591796875,10.302000045776367,1.3099501132965088,-1.7839500904083252
1771514678703044600,0.801044677734375,10.060050010681152,1.4419500827789307,-1.8820500373840332
1771514678723454700,0.821454833984375,9.700950622558594,1.477950096130371,-1.8769501447677612
1771514678743866400,0.841866455078125,9.535050392150879,1.4610000848770142,-1.8000000715255737
1771514678764278800,0.86227880859375,9.544950485229492,1.4269500970840454,-1.7880001068115234
1771514678784694300,0.8826943359375,9.712950706481934,1.3870500326156616,-1.6639500856399536
1771514678805110800,0.90311083984375,9.841950416564941,1.2360000610351562,-1.527000069618225
1771514678825527300,0.92352734375,10.20300006866455,1.1950500011444092,-1.4050500392913818
1771514678845939700,0.943939697265625,10.591050148010254,1.1089500188827515,-1.432050108909607
1771514678866343700,0.96434375,10.645950317382812,1.0470000505447388,-1.4719500541687012
1771514678886748400,0.98474853515625,10.432950019836426,1.054050087928772,-1.4719500541687012
1771514678907156200,1.00515625,10.213050842285156,1.0470000505447388,-1.4410500526428223
1771514678927567600,1.025567626953125,10.20300006866455,1.0009500980377197,-1.3140000104904175
1771514678947980800,1.045980712890625,10.438050270080566,0.9289500713348389,-1.0939500331878662
1771514678968392700,1.066392822265625,10.56705093383789,0.9079500436782837,-1.2019500732421875
1771514678988809200,1.086809326171875,10.621950149536133,0.9370500445365906,-1.4479501247406006
1771514679009229000,1.10722900390625,10.396950721740723,0.9130500555038452,-1.4749500751495361
1771514679029645000,1.12764501953125,10.179000854492188,0.8620500564575195,-1.207050085067749
1771514679050056400,1.148056396484375,10.078950881958008,0.8550000190734863,-1.0320000648498535
1771514679070467800,1.1684677734375,10.041000366210938,0.9079500436782837,-1.1730000972747803
1771514679090879200,1.188879150390625,10.135950088500977,0.9919500350952148,-1.4650501012802124
1771514679111290600,1.20929052734375,10.18695068359375,0.9580500721931458,-1.429050087928772
1771514679131705900,1.229705810546875,10.195950508117676,0.8460000157356262,-1.2400500774383545
1771514679152121300,1.250121337890625,10.123950004577637,0.8100000619888306,-1.125
1771514679172537900,1.270537841796875,10.096050262451172,0.9079500436782837,-1.294950008392334
1771514679192955400,1.290955322265625,10.042950630187988,0.9630000591278076,-1.3549500703811646
1771514679213370400,1.311370361328125,10.033050537109375,0.8940000534057617,-1.3410000801086426
1771514679233781200,1.33178125,10.096050262451172,0.9169500470161438,-1.297950029373169
1771514679254192400,1.3521923828125,10.254000663757324,0.8359500169754028,-1.3290001153945923
1771514679274606300,1.3726064453125,10.450050354003906,0.7930500507354736,-1.2190500497817993
1771514679295019300,1.393019287109375,10.455000877380371,0.7690500617027283,-1.2400500774383545
1771514679315430400,1.413430419921875,10.342050552368164,0.7429500222206116,-1.1040000915527344
1771514679335841300,1.43384130859375,10.330050468444824,0.6349500417709351,-0.9670500755310059
1771514679356254500,1.45425439453125,10.471050262451172,0.6970500349998474,-1.1640000343322754
1771514679376668200,1.474668212890625,10.519050598144531,0.8149500489234924,-1.225950002670288
1771514679397080800,1.495080810546875,10.657950401306152,0.8500500321388245,-1.1560500860214233
1771514679417494000,1.515493896484375,10.675050735473633,0.8119500279426575,-1.2160500288009644
1771514679437906000,1.535906005859375,10.576950073242188,0.8910000324249268,-1.4580000638961792
1771514679458317600,1.556317626953125,10.438050270080566,0.9409500360488892,-1.4389500617980957
1771514679478735600,1.576735595703125,10.282050132751465,0.9559500217437744,-1.4719500541687012
1771514679499155700,1.59715576171875,10.170000076293945,1.0639500617980957,-1.4650501012802124
1771514679519572200,1.617572265625,10.084050178527832,1.1260499954223633,-1.5109500885009766
1771514679539984600,1.637984619140625,10.045050621032715,1.075950026512146,-1.519950032234192
1771514679560395300,1.658395263671875,10.099950790405273,1.0369499921798706,-1.4130001068115234
1771514679580808700,1.67880859375,9.961950302124023,1.0320000648498535,-1.3120501041412354
1771514679601222100,1.69922216796875,9.775050163269043,1.114050030708313,-1.446000099182129
1771514679621633500,1.719633544921875,9.628950119018555,1.054050087928772,-1.4959501028060913
1771514679642044200,1.740044189453125,9.865950584411621,0.9289500713348389,-1.4010000228881836
1771514679662454500,1.76045458984375,10.093050003051758,0.8860500454902649,-1.2090001106262207
1771514679682867700,1.78086767578125,10.309050559997559,0.9799500703811646,-1.0960500240325928
1771514679703281400,1.801281494140625,10.24905014038086,1.1160000562667847,-1.0150500535964966
1771514679723691500,1.82169140625,10.147950172424316,1.2720000743865967,-0.9960000514984131
1771514679744099600,1.842099609375,10.372950553894043,1.321950078010559,-1.3069500923156738
1771514679764508700,1.8625087890625,10.359000205993652,1.3290001153945923,-1.234950065612793
1771514679784920600,1.882920654296875,10.57395076751709,1.3200000524520874,-1.1749500036239624
1771514679805333800,1.903333740234375,10.270050048828125,1.2739500999450684,-1.2690000534057617
1771514679825744400,1.923744384765625,9.745950698852539,1.5090000629425049,-1.2430500984191895
1771514679846152400,1.94415234375,9.660000801086426,1.7359501123428345,-1.2570000886917114
1771514679866560800,1.964560791015625,10.384950637817383,1.576050043106079,-1.3000500202178955
1771514679886969900,1.984969970703125,12.006000518798828,1.437000036239624,-1.7170500755310059
1771514679907380000,2.0053798828125,11.997000694274902,1.1980500221252441,-1.1299500465393066
1771514679927792600,2.025792724609375,10.837950706481934,0.9769500494003296,-1.0369499921798706
1771514679948200000,2.046199951171875,9.43695068359375,1.702950119972229,-1.207050085067749
1771514679968605200,2.066605224609375,9.202950477600098,1.9729501008987427,-1.4440500736236572
1771514679989013000,2.087012939453125,10.21500015258789,1.5810000896453857,-1.446000099182129
1771514680009421800,2.107421875,11.238000869750977,1.2460500001907349,-1.1470500230789185
1771514680029831700,2.127831787109375,10.038000106811523,1.4010000228881836,-1.7500500679016113
1771514680050242800,2.148242919921875,9.13800048828125,2.2200000286102295,-1.7500500679016113
1771514680070654000,2.168654052734375,9.484950065612793,2.470950126647949,-1.2499500513076782
1771514680091064000,2.18906396484375,9.106950759887695,2.353950023651123,-0.9360000491142273
1771514680111475200,2.20947509765625,8.773950576782227,2.5860002040863037,-0.8760000467300415
1771514680131883000,2.229883056640625,8.295000076293945,2.0880000591278076,0.0019500000635161996
1771514680152285000,2.250284912109375,8.307000160217285,2.6010000705718994,-1.3690500259399414
1771514680172687600,2.2706875,9.466050148010254,1.966050148010254,-1.7260501384735107
1771514680193092900,2.2910927734375,10.596000671386719,1.7650500535964966,-1.968000054359436
1771514680213498400,2.311498291015625,10.993050575256348,1.50600004196167,-2.4400501251220703
1771514680233905700,2.33190576171875,11.350050926208496,1.4490001201629639,-2.5759501457214355
1771514680254314000,2.35231396484375,10.462050437927246,1.4010000228881836,-1.7640000581741333
1771514680274718700,2.37271875,9.657000541687012,1.6740000247955322,-1.3890000581741333
1771514680295125800,2.393125732421875,9.528000831604004,1.894050121307373,-1.590000033378601
1771514680315536600,2.41353662109375,9.95895004272461,1.7940000295639038,-1.9030500650405884
1771514680335949800,2.43394970703125,10.189050674438477,1.6380001306533813,-1.4650501012802124
1771514680356360400,2.4543603515625,9.880050659179688,1.6000500917434692,-1.4700000286102295
1771514680376765700,2.474765625,10.404000282287598,1.602000117301941,-2.1720001697540283
1771514680397170200,2.495170166015625,10.24905014038086,1.8109500408172607,-2.293950080871582
1771514680417572900,2.51557275390625,9.328950881958008,1.8660000562667847,-1.7050501108169556
1771514680437974000,2.53597412109375,9.316950798034668,1.7989500761032104,-1.4800500869750977
1771514680458377000,2.556376953125,10.596000671386719,1.1209501028060913,-1.5870001316070557
1771514680478784800,2.57678466796875,11.496000289916992,1.1089500188827515,-1.5919500589370728
1771514680499192300,2.5971923828125,11.034000396728516,1.4040000438690186,-1.5940500497817993
1771514680519602700,2.617602783203125,10.273050308227539,1.2889500856399536,-1.5229500532150269
1771514680540018700,2.638018798828125,9.838950157165527,1.3870500326156616,-1.8030000925064087
1771514680560430300,2.658430419921875,9.814950942993164,1.7220001220703125,-2.284050226211548
1771514680580843500,2.678843505859375,9.622050285339355,1.8349500894546509,-2.0809500217437744
1771514680601260800,2.6992607421875,9.64995002746582,1.675950050354004,-1.8049501180648804
1771514680621675800,2.71967578125,10.324950218200684,1.6120500564575195,-1.377000093460083
1771514680642091800,2.740091796875,10.534050941467285,1.801050066947937,-1.3570500612258911
1771514680662506200,2.76050634765625,10.606050491333008,1.6600500345230103,-1.5919500589370728
1771514680682919200,2.780919189453125,10.383000373840332,1.6309500932693481,-1.7430000305175781
1771514680703328000,2.801327880859375,10.633950233459473,1.6980000734329224,-1.8390001058578491
1771514680723737300,2.8217373046875,10.747050285339355,1.6879501342773438,-1.714050054550171
1771514680744148700,2.842148681640625,10.384950637817383,1.699950098991394,-1.3890000581741333
1771514680764558300,2.862558349609375,10.110000610351562,1.8199501037597656,-1.5229500532150269
1771514680784972800,2.882972900390625,10.090950012207031,1.6840500831604004,-1.5829501152038574
1771514680805390300,2.903390380859375,9.921000480651855,1.5349500179290771,-1.0770000219345093
1771514680825805300,2.923805419921875,9.982950210571289,1.321950078010559,-1.1080501079559326
1771514680846220500,2.944220458984375,10.086000442504883,1.1929500102996826,-1.2520500421524048
1771514680866633500,2.964633544921875,10.090950012207031,1.0950000286102295,-1.207050085067749
1771514680887045600,2.985045654296875,10.017000198364258,0.9340500235557556,-1.152000069618225
1771514680907461600,3.005461669921875,10.27500057220459,0.661050021648407,-1.3650000095367432
1771514680927878400,3.02587841796875,10.515000343322754,0.5749500393867493,-1.798050045967102
1771514680948294400,3.04629443359375,10.539000511169434,0.5560500025749207,-2.0160000324249268
1771514680968708000,3.0667080078125,10.22700023651123,0.5539500117301941,-2.1880500316619873
1771514680989120000,3.0871201171875,9.780000686645508,0.5779500007629395,-2.242950201034546
1771514681009532000,3.107531982421875,10.005000114440918,0.6679500341415405,-1.981950044631958
1771514681029943000,3.127943115234375,10.285050392150879,0.6850500106811523,-1.7290500402450562
1771514681050355000,3.14835498046875,9.982950210571289,0.7330500483512878,-1.699950098991394
1771514681070768400,3.168768310546875,9.559050559997559,0.6330000162124634,-1.6570501327514648
1771514681091180300,3.18918017578125,9.648000717163086,0.7279500365257263,-1.8049501180648804
1771514681111590000,3.20958984375,10.366050720214844,0.6300000548362732,-1.8220500946044922
1771514681132000500,3.23000048828125,10.780050277709961,0.49605002999305725,-1.8460501432418823
1771514681152409900,3.250409912109375,10.761000633239746,0.43905001878738403,-1.798050045967102
1771514681172815600,3.270815673828125,10.222050666809082,0.5509500503540039,-1.755000114440918
1771514681193220600,3.291220703125,10.084050178527832,0.690000057220459,-1.954050064086914
1771514681213626000,3.311626220703125,10.141050338745117,0.8860500454902649,-1.9560000896453857
1771514681234033700,3.33203369140625,10.159950256347656,0.9079500436782837,-1.9729501008987427
1771514681254444800,3.35244482421875,9.868050575256348,0.8820000290870667,-2.064000129699707
1771514681274858500,3.3728583984375,10.129050254821777,1.1929500102996826,-2.013000011444092
1771514681295269400,3.393269287109375,10.4239501953125,1.2769500017166138,-1.9969501495361328
1771514681315681500,3.413681640625,10.191000938415527,1.1860500574111938,-2.0689501762390137
1771514681336094500,3.434094482421875,10.615050315856934,1.3680000305175781,-1.968000054359436
1771514681356504300,3.45450439453125,11.392951011657715,1.6500000953674316,-2.2960500717163086
1771514681376910600,3.47491064453125,11.32395076751709,1.6840500831604004,-3.301950216293335
1771514681397317400,3.4953173828125,11.071950912475586,1.7839500904083252,-3.7900502681732178
1771514681417723600,3.5157236328125,9.364950180053711,1.8750001192092896,-3.7849502563476562
1771514681438130200,3.536130126953125,8.773950576782227,2.9860501289367676,-3.627000093460083
1771514681458541300,3.556541259765625,7.669950485229492,3.5149502754211426,-3.7300500869750977
1771514681478956000,3.5769560546875,7.828050136566162,3.2950501441955566,-2.2980000972747803
1771514681499367400,3.597367431640625,8.884050369262695,3.2059502601623535,-0.27000001072883606
1771514681519775700,3.617775634765625,9.211950302124023,3.5779502391815186,-0.6319500207901001
1771514681540186400,3.638186279296875,9.052050590515137,3.6949501037597656,-3.091050148010254
1771514681560598000,3.658597900390625,10.729950904846191,2.965050220489502,-6.438000202178955
1771514681581010400,3.679010498046875,11.245050430297852,4.9830002784729,-5.526000499725342
1771514681601419800,3.699419677734375,8.326050758361816,5.662950038909912,-6.6060004234313965
1771514681621828400,3.719828369140625,8.42400074005127,6.3760504722595215,-5.832000255584717
1771514681642240300,3.740240234375,9.946950912475586,6.060000419616699,-3.4069502353668213
1771514681662654200,3.760654296875,11.041050910949707,5.626950263977051,1.0170000791549683
1771514681683069700,3.781069580078125,11.986950874328613,6.526950359344482,3.973950147628784
1771514681703484400,3.801484375,13.917000770568848,2.743950128555298,-0.16005000472068787
1771514681723893200,3.821893310546875,13.194000244140625,1.6240500211715698,-2.3869500160217285
1771514681744300000,3.842300048828125,12.885000228881836,2.9790000915527344,-1.8510000705718994
1771514681764711000,3.8627109375,10.357050895690918,3.630000114440918,-0.3829500079154968
1771514681785121300,3.883121337890625,11.784000396728516,3.1030502319335938,0.8280000686645508
1771514681805529900,3.90352978515625,10.603050231933594,3.1489500999450684,-2.0490000247955322
1771514681825939000,3.92393896484375,11.242050170898438,3.391050100326538,-3.388050079345703
1771514681846348500,3.9443486328125,12.030000686645508,4.281000137329102,-3.031050205230713
1771514681866758400,3.96475830078125,10.381050109863281,4.576050281524658,-3.2560501098632812
1771514681887170600,3.985170654296875,8.355000495910645,4.69605016708374,-3.000000238418579
1771514681907585000,4.0055849609375,7.009050369262695,4.777050018310547,-1.8460501432418823
1771514681927999200,4.025999267578125,6.337050437927246,4.789050102233887,-0.7399500608444214
1771514681948411600,4.04641162109375,6.286050319671631,4.903950214385986,-0.06195000186562538
1771514681968821500,4.066821533203125,7.669950485229492,4.70805025100708,-0.8760000467300415
1771514681989229800,4.087229736328125,8.37600040435791,4.578000068664551,-1.7959500551223755
1771514682009637400,4.107637451171875,8.676000595092773,4.392000198364258,-1.5390000343322754
1771514682030044400,4.12804443359375,8.551050186157227,4.753050327301025,-0.6850500106811523
1771514682050450400,4.148450439453125,6.444000244140625,4.554000377655029,0.0970500037074089
1771514682070861000,4.168861083984375,4.900050163269043,5.026050090789795,-0.5410500168800354
1771514682091272400,4.1892724609375,4.291950225830078,5.449950218200684,-1.5390000343322754
1771514682111682600,4.2096826171875,4.22504997253418,5.524050235748291,-2.350950002670288
1771514682132090000,4.230090087890625,4.5769500732421875,5.179050445556641,-2.4760501384735107
1771514682152498700,4.250498779296875,5.182950019836426,5.4210004806518555,-2.0299501419067383
1771514682172911400,4.270911376953125,5.578050136566162,5.1220502853393555,-2.1880500316619873
1771514682193323500,4.291323486328125,6.424950122833252,4.903950214385986,-3.132000207901001
1771514682213733000,4.311733154296875,6.930000305175781,5.301000118255615,-4.486950397491455
1771514682234137600,4.3321376953125,7.024050235748291,5.586000442504883,-5.784000396728516
1771514682254545400,4.35254541015625,7.242000579833984,5.287050247192383,-5.47605037689209
1771514682274958600,4.37295849609375,18.283950805664062,6.9970502853393555,-22.31205177307129
1771514682295370200,4.393370361328125,10.407000541687012,6.951000213623047,-2.803950071334839
1771514682315780400,4.4137802734375,1.4640001058578491,6.988950252532959,2.956050157546997
1771514682336190700,4.434190673828125,3.7789502143859863,7.276950359344482,-5.191050052642822
1771514682356605400,4.45460546875,7.384950160980225,7.8510003089904785,-7.800000190734863
1771514682377018600,4.4750185546875,5.511000156402588,6.822000503540039,-3.199050188064575
1771514682397425700,4.49542578125,5.688000202178955,6.415050506591797,-0.07695000618696213
1771514682417833000,4.5158330078125,7.603050231933594,6.331050395965576,-1.336050033569336
1771514682438241300,4.5362412109375,9.9660005569458,6.8580002784729,-5.461050033569336
1771514682458646500,4.556646484375,8.530050277709961,6.582000255584717,-4.195050239562988
1771514682479051300,4.57705126953125,6.625950336456299,6.094050407409668,-1.8270001411437988
1771514682499456500,4.59745654296875,7.788000583648682,5.778000354766846,-2.1310501098632812
1771514682519860200,4.617860107421875,8.752050399780273,5.458950042724609,-3.1630501747131348
1771514682540264200,4.63826416015625,8.83395004272461,5.068950176239014,-4.2109503746032715
1771514682560669400,4.65866943359375,7.051950454711914,5.128950119018555,-3.1459500789642334
1771514682581076200,4.679076171875,6.123000144958496,3.9370501041412354,-2.2669501304626465
1771514682601485600,4.699485595703125,7.741950511932373,5.54295015335083,-6.193950176239014
1771514682621895700,4.719895751953125,10.02405071258545,5.449950218200684,-6.892950534820557
1771514682642303500,4.740303466796875,9.045000076293945,4.35105037689209,-5.065950393676758
1771514682662711600,4.760711669921875,7.52400016784668,4.8319501876831055,-2.6460001468658447
1771514682683119600,4.78111962890625,8.194950103759766,4.195050239562988,-4.630050182342529
1771514682703524400,4.8015244140625,9.877950668334961,5.589000225067139,-2.4660000801086426
1771514682723926500,4.821926513671875,8.788050651550293,5.0119500160217285,-3.0960001945495605
1771514682744329000,4.842328857421875,9.97605037689209,4.923000335693359,-3.0960001945495605
1771514682764734000,4.86273388671875,8.269050598144531,5.359050273895264,-2.362950086593628
1771514682785142000,4.88314208984375,8.748000144958496,5.191050052642822,-3.9600002765655518
1771514682805553000,4.903552978515625,7.189050197601318,5.620050430297852,-3.450000047683716
1771514682825961500,4.92396142578125,7.3999505043029785,4.654950141906738,-4.264050006866455
1771514682846365700,4.94436572265625,7.387950420379639,5.0400004386901855,-4.003050327301025
1771514682866773800,4.964773681640625,7.861950397491455,4.1860504150390625,-5.752950191497803
1771514682887184000,4.985183837890625,9.853950500488281,5.059950351715088,-3.129000186920166
1771514682907591700,5.005591796875,9.70305061340332,4.7719502449035645,-3.100050210952759
1771514682927997200,5.0259970703125,9.652950286865234,4.926000118255615,-3.6180002689361572
1771514682948405500,5.046405517578125,8.656949996948242,6.5370001792907715,-3.1150500774383545
1771514682968811800,5.066811767578125,7.870950222015381,5.175000190734863,-3.1840500831604004
1771514682989214200,5.087214111328125,7.219950199127197,6.369000434875488,-3.637050151824951
1771514683009617700,5.10761767578125,6.802950382232666,7.164000511169434,-2.0899500846862793
1771514683030024000,5.12802392578125,7.491000175476074,6.408000469207764,-2.8369500637054443
1771514683050431000,5.148430908203125,7.483050346374512,6.3259501457214355,-3.4140002727508545
1771514683070836700,5.168836669921875,8.43600082397461,5.47605037689209,-2.3580000400543213
1771514683091239400,5.189239501953125,8.40000057220459,5.026050090789795,-3.2059502601623535
1771514683111641000,5.20964111328125,9.010950088500977,5.233950138092041,-3.687000274658203
1771514683132046800,5.230046875,7.681950569152832,4.3630499839782715,-3.759000062942505
1771514683152453600,5.25045361328125,7.902000427246094,4.783950328826904,-2.932950258255005
1771514683172858000,5.270858154296875,7.624950408935547,4.600050449371338,-3.6180002689361572
1771514683193263900,5.291263916015625,9.289050102233887,5.167050361633301,-3.2539501190185547
1771514683213672700,5.311672607421875,8.884050369262695,4.480050086975098,-4.204050064086914
1771514683234085000,5.332085205078125,8.66100025177002,3.811950206756592,-2.6650500297546387
1771514683254497800,5.352497802734375,8.530050277709961,5.493000030517578,-3.80400013923645
1771514683274906600,5.37290673828125,8.338050842285156,3.931950092315674,-3.430950164794922
1771514683295315000,5.39331494140625,8.230050086975098,6.502950191497803,-2.1910500526428223
1771514683315724500,5.413724609375,8.569950103759766,4.779000282287598,-3.699000120162964
1771514683336134100,5.434134033203125,9.310050010681152,6.297000408172607,-2.3299500942230225
1771514683356543200,5.454543212890625,8.247000694274902,4.9110002517700195,-4.317000389099121
1771514683376950800,5.47495068359375,9.64995002746582,5.9599504470825195,-1.6180500984191895
1771514683397357800,5.49535791015625,8.341050148010254,4.267050266265869,-3.5220000743865967
1771514683417770000,5.51577001953125,9.304950714111328,5.625000476837158,-2.1570000648498535
1771514683438189000,5.53618896484375,8.07194995880127,4.249950408935547,-3.5050501823425293
1771514683458606300,5.5566064453125,8.158950805664062,4.5420002937316895,-3.321000099182129
1771514683479019300,5.577019287109375,8.30505084991455,4.537950038909912,-4.396049976348877
1771514683499431700,5.597431640625,8.029050827026367,4.657050132751465,-3.117000102996826
1771514683519845000,5.61784521484375,7.491000175476074,4.789050102233887,-4.470000267028809
1771514683540258000,5.638258056640625,7.926000595092773,3.8650500774383545,-4.657050132751465
1771514683560666400,5.658666259765625,9.745950698852539,3.886050224304199,-5.017950057983398
1771514683581074200,5.67907421875,11.03700065612793,3.642000198364258,-3.7039501667022705
1771514683601488100,5.699488037109375,10.062000274658203,3.4390501976013184,-4.623000144958496
1771514683621906200,5.71990625,8.08395004272461,3.4770002365112305,-4.483950138092041
1771514683642320600,5.740320556640625,6.856050491333008,4.669050216674805,-4.534950256347656
1771514683662728700,5.760728759765625,6.79395055770874,4.51800012588501,-5.992950439453125
1771514683683139600,5.7811396484375,7.201050281524658,5.584050178527832,-5.647950172424316
1771514683703552000,5.801552001953125,5.436000347137451,4.288949966430664,-5.005950450897217
1771514683723959800,5.821959716796875,8.28795051574707,6.472050189971924,-4.446000099182129
1771514683744367400,5.842367431640625,8.416950225830078,4.135050296783447,-3.856950283050537
1771514683764775000,5.86277490234375,10.729950904846191,5.54295015335083,-3.787950277328491
1771514683785181200,5.88318115234375,6.820050239562988,4.019999980926514,-2.800950050354004
1771514683805586400,5.90358642578125,8.439000129699707,6.439050197601318,-4.824000358581543
1771514683825993200,5.9239931640625,6.6409502029418945,4.861050128936768,-3.3349502086639404
1771514683846402600,5.944402587890625,9.106950759887695,7.312950134277344,-4.5199503898620605
1771514683866810000,5.96481005859375,7.165050506591797,4.213950157165527,-2.3269500732421875
1771514683887215000,5.985215087890625,9.543000221252441,7.89900016784668,-3.787950277328491
1771514683907621400,6.005621337890625,7.029000282287598,3.6090002059936523,-3.069000244140625
1771514683928027100,6.026027099609375,8.575050354003906,9.321000099182129,-2.3269500732421875
1771514683948434400,6.046434326171875,5.779050350189209,4.609050273895264,-4.744950294494629
1771514683968844800,6.0668447265625,8.27400016784668,9.004950523376465,-2.1670501232147217
1771514683989254400,6.08725439453125,6.853950500488281,4.027950286865234,-4.992000102996826
1771514684009659000,6.107658935546875,8.950950622558594,7.609950542449951,-1.755000114440918
1771514684030063000,6.12806298828125,6.442050457000732,2.826000213623047,-3.646050214767456
1771514684050467300,6.14846728515625,9.223950386047363,7.312950134277344,-1.6710001230239868
1771514684070869200,6.168869140625,6.346050262451172,2.055000066757202,-5.647950172424316
1771514684091272400,6.1892724609375,10.885950088500977,7.056000232696533,-0.16695000231266022
1771514684111676000,6.209676025390625,6.31695032119751,2.25600004196167,-6.328050136566162
1771514684132081400,6.230081298828125,10.279950141906738,6.8460001945495605,-0.7330500483512878
1771514684152490000,6.250489990234375,7.25100040435791,2.265000104904175,-6.217950344085693
1771514684172896800,6.270896728515625,10.957950592041016,6.408000469207764,0.7870500087738037
1771514684193300200,6.29130029296875,8.934000015258789,2.8380000591278076,-6.448050498962402
1771514684213703200,6.311703125,9.72195053100586,6.357000350952148,1.7010000944137573
1771514684234105900,6.33210595703125,7.716000556945801,3.637050151824951,-7.140000343322754
1771514684254509000,6.352509033203125,8.119950294494629,5.332950115203857,0.45600003004074097
1771514684274912800,6.372912841796875,8.944050788879395,3.541950225830078,-6.175050258636475
1771514684295316700,6.393316650390625,7.297050476074219,3.95805025100708,-0.44505003094673157
1771514684315721200,6.41372119140625,9.957000732421875,2.281949996948242,-4.744950294494629
1771514684336125200,6.434125244140625,9.49905014038086,3.7380001544952393,-0.547950029373169
1771514684356528400,6.4545283203125,11.332950592041016,1.53000009059906,-4.165950298309326
1771514684376931000,6.47493115234375,9.652950286865234,3.9130501747131348,-1.4029500484466553
1771514684397336600,6.495336669921875,11.062950134277344,1.284000039100647,-4.176000118255615
1771514684417747200,6.515747314453125,10.018950462341309,3.309000253677368,-0.5580000281333923
1771514684438161400,6.536161376953125,12.664950370788574,2.2129499912261963,-3.699000120162964
1771514684458574300,6.55657421875,9.38895034790039,2.9449501037597656,-1.6350001096725464
1771514684478983000,6.57698291015625,10.974000930786133,3.3379502296447754,-3.259050130844116
1771514684499390200,6.59739013671875,7.735050201416016,3.7980000972747803,-3.5080502033233643
1771514684519800800,6.61780078125,8.02500057220459,4.07295036315918,-2.6620500087738037
1771514684540212000,6.6382119140625,9.604950904846191,3.6180002689361572,-1.2829500436782837
1771514684560619300,6.658619384765625,10.258050918579102,2.803950071334839,-1.7020500898361206
1771514684581025500,6.679025634765625,11.440950393676758,3.8359501361846924,-0.6970500349998474
1771514684601431600,6.699431640625,10.23705005645752,2.5219500064849854,-2.883000135421753
1771514684621838000,6.719838134765625,11.13705062866211,4.126049995422363,-1.8390001058578491
1771514684642244600,6.74024462890625,8.046000480651855,2.8399500846862793,-3.9619503021240234
1771514684662655700,6.76065576171875,10.717950820922852,4.114050388336182,-3.607950210571289
1771514684683071200,6.7810712890625,5.620950222015381,3.2470500469207764,-3.9910502433776855
1771514684703485700,6.801485595703125,10.396950721740723,4.582950115203857,-2.8249502182006836
1771514684723896000,6.82189599609375,5.712000370025635,2.4280500411987305,-3.8830502033233643
1771514684744303600,6.8423037109375,9.142950057983398,6.642000198364258,-0.07395000010728836
1771514684764710400,6.86271044921875,5.283000469207764,1.2480000257492065,-7.956000328063965
1771514684785119500,6.883119384765625,7.90500020980835,8.383049964904785,2.3839499950408936
1771514684805529900,6.90352978515625,8.25,0.47895002365112305,-10.234950065612793
1771514684825936400,6.923936279296875,8.568000793457031,8.665050506591797,5.176050186157227
1771514684846344000,6.944343994140625,11.475000381469727,0.817050039768219,-8.995050430297852
1771514684866750500,6.96475048828125,7.32105016708374,8.348999977111816,5.080050468444824
1771514684887154200,6.985154296875,9.478050231933594,2.3610000610351562,-8.083050727844238
1771514684907558700,7.00555859375,6.913950443267822,6.867000102996826,1.7280000448226929
1771514684927962000,7.025962158203125,10.234050750732422,3.841050148010254,-5.242950439453125
1771514684948363300,7.04636328125,8.515049934387207,4.674000263214111,-0.5119500160217285
1771514684968767000,7.06676708984375,7.5360002517700195,5.0209503173828125,-0.775950014591217
1771514684989172500,7.08717236328125,9.894000053405762,2.746950149536133,-4.827000141143799
1771514685009578800,7.107578857421875,8.163000106811523,6.432000160217285,0.8400000333786011
1771514685029986000,7.127986083984375,10.081050872802734,4.399050235748291,-2.4060001373291016
1771514685050393000,7.14839306640625,9.070950508117676,4.42995023727417,-0.11205000430345535
1771514685070800000,7.1687998046875,9.559050559997559,7.210050106048584,0.037050001323223114
1771514685091206000,7.189205810546875,9.466050148010254,3.321000099182129,-1.7479500770568848
1771514685111612400,7.2096123046875,9.294000625610352,6.028950214385986,1.8400501012802124
1771514685132021800,7.230021728515625,11.532000541687012,2.305950164794922,-4.803000450134277
1771514685152435000,7.25043505859375,9.559050559997559,3.9630002975463867,0.10200000554323196
1771514685172847600,7.27084765625,10.431000709533691,1.297950029373169,-3.8550002574920654
1771514685193256700,7.291256591796875,8.14905071258545,3.022050142288208,0.7920000553131104
1771514685213666800,7.311666748046875,10.255950927734375,0.859950065612793,-2.6860501766204834
1771514685234080000,7.332080078125,11.331000328063965,3.82200026512146,0.34905001521110535
1771514685254490400,7.352490478515625,10.741950035095215,3.2689502239227295,-2.473050117492676
1771514685274898000,7.37289794921875,10.41195011138916,3.181950092315674,-1.8360000848770142
1771514685295308000,7.39330810546875,8.760000228881836,1.2619500160217285,-3.517050266265869
1771514685315719200,7.41371923828125,9.328950881958008,2.385000228881836,-0.7060500383377075
1771514685336128800,7.434128662109375,12.655050277709961,3.1030502319335938,-0.361050009727478
1771514685356537300,7.454537353515625,10.576950073242188,5.4310503005981445,1.4050500392913818
1771514685376943000,7.474943115234375,10.56705093383789,4.693050384521484,-0.5389500260353088
1771514685397349600,7.495349609375,8.199000358581543,4.066050052642822,-1.4629501104354858
1771514685417760000,7.515760009765625,9.490050315856934,5.572050094604492,-1.5589500665664673
1771514685438169900,7.536169921875,6.850950241088867,0.7020000219345093,-2.482950210571289
1771514685458580700,7.556580810546875,11.010000228881836,4.914000034332275,-2.1450002193450928
1771514685478990300,7.576990234375,6.978000164031982,-0.27105000615119934,-3.61995005607605
1771514685499396000,7.59739599609375,10.372950553894043,6.973050117492676,0.7050000429153442
1771514685519800800,7.61780078125,7.624950408935547,0.24000000953674316,-4.798050403594971
1771514685540207000,7.63820703125,9.676950454711914,8.506950378417969,2.242950201034546
1771514685560613600,7.658613525390625,9.508950233459473,-0.6040500402450562,-6.333000183105469
1771514685581021700,7.679021728515625,9.880050659179688,8.866950035095215,3.8080501556396484
1771514685601429500,7.699429443359375,9.669000625610352,-1.3609501123428345,-6.88800048828125
1771514685621835800,7.719835693359375,8.105999946594238,9.597000122070312,4.5769500732421875
1771514685642241800,7.74024169921875,11.422050476074219,1.300950050354004,-7.819950580596924
1771514685662647000,7.76064697265625,3.3199501037597656,8.263050079345703,4.3090500831604
1771514685683052500,7.781052490234375,12.895051002502441,1.987950086593628,-4.972950458526611
1771514685703458000,7.8014580078125,6.043950080871582,3.961050271987915,-1.828950047492981
1771514685723863800,7.82186376953125,11.797950744628906,5.929050445556641,-0.6630000472068787
1771514685744269000,7.84226904296875,6.954000473022461,0.30900001525878906,-8.125950813293457
1771514685764674600,7.862674560546875,8.527050018310547,8.043000221252441,4.464000225067139
1771514685785085000,7.8830849609375,9.829950332641602,-0.20400001108646393,-9.409049987792969
1771514685805500000,7.9035,11.09595012664795,7.53795051574707,5.913000106811523
1771514685825913900,7.923913818359375,11.692950248718262,1.4749500751495361,-3.7759501934051514
1771514685846323000,7.944322998046875,7.07895040512085,5.626950263977051,1.6750500202178955
1771514685866729200,7.964729248046875,2.6230502128601074,7.293000221252441,0.14505000412464142
1771514685887136500,7.985136474609375,6.3510003089904785,4.866000175476074,-3.181950092315674
1771514685907545900,8.0055458984375,12.556950569152832,7.818000316619873,1.2679500579833984
1771514685927955700,8.025955810546876,10.668000221252441,6.1180500984191895,2.977950096130371
1771514685948362200,8.0463623046875,4.572000026702881,6.448050498962402,4.215000152587891
1771514685968768300,8.066768310546875,4.25100040435791,8.397000312805176,3.334050178527832
1771514685989177000,8.087177001953124,10.668000221252441,7.009050369262695,-0.43605002760887146
1771514686009589000,8.107589111328124,13.480950355529785,7.6650004386901855,3.43500018119812
1771514686030000400,8.12800048828125,14.845951080322266,6.229950428009033,1.9960501194000244
1771514686050408000,8.148407958984375,12.094950675964355,2.9860501289367676,-1.0800000429153442
1771514686070812700,8.168812744140626,8.414999961853027,4.699950218200684,0.11595000326633453
1771514686091216600,8.189216552734376,9.42495059967041,1.240950107574463,-4.779000282287598
1771514686111623000,8.209622802734375,6.435000419616699,0.47505003213882446,3.636000156402588
1771514686132029200,8.230029296875,12.547050476074219,-1.3510500192642212,0.5550000071525574
1771514686152434400,8.250434326171876,11.9010009765625,-0.4410000145435333,-0.9169500470161438
1771514686172842200,8.27084228515625,9.72195053100586,5.668050289154053,0.6499500274658203
1771514686193250000,8.29125,7.909950256347656,2.047950029373169,-6.169950485229492
1771514686213657600,8.31165771484375,8.580000877380371,8.289000511169434,-1.204050064086914
1771514686234064600,8.332064697265626,6.954000473022461,2.63700008392334,-3.0240001678466797
1771514686254472200,8.35247216796875,9.370050430297852,5.859000205993652,3.4330501556396484
1771514686274882300,8.37288232421875,10.428000450134277,3.42900013923645,-0.6769500374794006
1771514686295290400,8.393290283203125,6.376950263977051,4.666950225830078,-0.5389500260353088
1771514686315695600,8.413695556640626,9.705000877380371,2.236950159072876,-3.867000102996826
1771514686336102700,8.4341025390625,10.906950950622559,3.192000150680542,-0.9499500393867493
1771514686356512000,8.454511962890624,11.467950820922852,2.31600022315979,-2.6050500869750977
1771514686376922400,8.47492236328125,10.428000450134277,2.625000238418579,-5.569050312042236
1771514686397331700,8.495331787109375,9.049050331115723,2.5669500827789307,-4.3309502601623535
1771514686417739000,8.515739013671874,6.174000263214111,2.565000057220459,-1.9420500993728638
1771514686438146600,8.536146484375,8.63700008392334,2.0380501747131348,0.4639500081539154
1771514686458555000,8.556554931640624,9.025050163269043,2.056950092315674,-1.1490000486373901
1771514686478959600,8.576959716796875,11.140050888061523,3.301950216293335,-0.6820500493049622
1771514686499362600,8.597362548828125,8.23799991607666,4.686000347137451,0.5110500454902649
1771514686519765800,8.617765869140625,9.328950881958008,3.7159502506256104,-0.7489500641822815
1771514686540168400,8.63816845703125,10.930950164794922,5.485950469970703,-3.289950132369995
1771514686560569900,8.65856982421875,10.381050109863281,3.979950189590454,-3.318000078201294
1771514686580971500,8.678971435546876,6.23805046081543,3.493950128555298,0.5760000348091125
1771514686601380600,8.699380615234375,9.9660005569458,0.6880500316619873,-1.3960500955581665
1771514686621793300,8.719793212890625,10.612950325012207,3.709050178527832,-1.8409501314163208
1771514686642201000,8.740201171875,11.587050437927246,1.3699500560760498,0.05895000323653221
1771514686662608400,8.7606083984375,8.194950103759766,6.072000503540039,-1.3530000448226929
1771514686683016400,8.781016357421874,7.998000144958496,4.171050071716309,-1.8600001335144043
1771514686703421000,8.8014208984375,6.5400004386901855,6.384000301361084,-0.4210500121116638
1771514686723822800,8.82182275390625,12.148050308227539,3.0799500942230225,0.09000000357627869
1771514686744226000,8.84222607421875,12.916050910949707,4.281000137329102,1.5670500993728638
1771514686764630500,8.862630615234375,11.391000747680664,1.9519500732421875,1.8240001201629639
1771514686785036300,8.883036376953125,8.28600025177002,4.009050369262695,1.371000051498413
1771514686805444400,8.9034443359375,9.820050239562988,0.9820500612258911,-1.8840000629425049
1771514686825853400,8.923853515625,11.697000503540039,3.9940502643585205,-1.165950059890747
1771514686846260500,8.944260498046875,10.383000373840332,-0.286050021648407,-2.121000051498413
1771514686866663700,8.96466357421875,9.367950439453125,2.743950128555298,0.21705001592636108
1771514686887066400,8.98506640625,8.428950309753418,-0.7600500583648682,-4.027050018310547
1771514686907471000,9.00547119140625,11.197050094604492,2.505000114440918,-0.3160500228404999
1771514686927876400,9.02587646484375,10.404000282287598,-1.609950065612793,-3.649050235748291
1771514686948285200,9.04628515625,9.616950035095215,3.5059502124786377,0.5020500421524048
1771514686968697000,9.066697021484375,7.440000534057617,-1.3369500637054443,-2.1190500259399414
1771514686989106400,9.0871064453125,12.49905014038086,4.104000091552734,0.8710500597953796
1771514687009513000,9.107512939453125,9.765000343322754,0.597000002861023,-5.527950286865234
1771514687029922800,9.1279228515625,8.56095027923584,4.605000019073486,2.2860000133514404
1771514687050336500,9.14833642578125,6.966000556945801,1.2859500646591187,-2.977950096130371
1771514687070749400,9.16874951171875,12.829950332641602,3.391050100326538,0.35805001854896545
1771514687091160600,9.18916064453125,11.88900089263916,0.1080000028014183,-4.999050140380859
1771514687111568000,9.20956787109375,13.395000457763672,3.1590001583099365,2.3809502124786377
1771514687131974000,9.229973876953125,8.146950721740723,0.5130000114440918,-4.60605001449585
1771514687152380000,9.2503798828125,9.994950294494629,1.9060500860214233,3.913950204849243
1771514687172784000,9.2707841796875,6.31695032119751,1.2499500513076782,0.9190500378608704
1771514687193190000,9.29118994140625,12.468000411987305,2.422950029373169,2.448000192642212
1771514687213596200,9.31159619140625,13.8589506149292,1.128000020980835,-2.1040501594543457
1771514687233999600,9.33199951171875,14.556000709533691,3.0049500465393066,2.020050048828125
1771514687254404000,9.352404052734375,8.215950012207031,1.7149500846862793,-2.0689501762390137
1771514687274811000,9.372810791015626,7.8349504470825195,1.360050082206726,2.8120501041412354
1771514687295218400,9.393218505859375,10.503000259399414,0.690000057220459,-1.741050124168396
1771514687315625200,9.413625244140626,12.310050964355469,0.7860000133514404,4.3090500831604
1771514687336029400,9.434029541015626,9.480000495910645,1.1740500926971436,-2.3080501556396484
1771514687356435000,9.45443505859375,10.084050178527832,0.48900002241134644,1.765950083732605
1771514687376843000,9.474843017578126,9.886950492858887,2.3419501781463623,-3.7300500869750977
1771514687397252900,9.4952529296875,9.861000061035156,0.7380000352859497,2.451000213623047
1771514687417666600,9.51566650390625,8.695050239562988,0.62295001745224,-1.9300501346588135
1771514687438079500,9.53607958984375,12.451951026916504,-0.15900000929832458,3.3490500450134277
1771514687458488600,9.556488525390625,12.025050163269043,0.8410500288009644,-1.4820001125335693
1771514687478895400,9.576895263671876,11.271000862121582,0.7500000596046448,2.640000104904175
1771514687499302700,9.597302734375,9.997050285339355,1.2000000476837158,-2.1499500274658203
1771514687519710000,9.6177099609375,10.926000595092773,-0.11295000463724136,1.5480000972747803
1771514687540117800,9.63811767578125,10.797000885009766,1.2049500942230225,-1.2570000886917114
1771514687560528100,9.658528076171875,9.949950218200684,-1.0470000505447388,0.27900001406669617
1771514687580938500,9.6789384765625,10.488000869750977,0.4050000309944153,0.25995001196861267
1771514687601346300,9.69934619140625,10.711050033569336,-0.9180000424385071,0.5020500421524048
1771514687621754400,9.71975439453125,11.407950401306152,-1.2360000610351562,0.43695002794265747
1771514687642164500,9.74016455078125,11.725950241088867,-0.8800500631332397,-0.9619500637054443
1771514687662573600,9.760573486328125,11.098950386047363,-0.8389500379562378,-0.004950000438839197
1771514687682984200,9.780984130859375,9.427950859069824,1.321950078010559,0.322050005197525
1771514687703395000,9.80139501953125,9.202950477600098,1.5640500783920288,0.31800001859664917
1771514687723804000,9.821803955078124,10.479000091552734,1.3840500116348267,1.6300500631332397
1771514687744214500,9.842214599609376,11.671051025390625,0.6660000085830688,0.14505000412464142
1771514687764625200,9.862625244140625,11.941950798034668,1.6000500917434692,0.2939999997615814
1771514687785036300,9.883036376953125,10.462050437927246,-0.29295000433921814,1.891050100326538
1771514687805449500,9.903449462890626,9.6670503616333,0.29295000433921814,4.531949996948242
1771514687825863400,9.923863525390624,12.325050354003906,-0.778950035572052,1.3900500535964966
1771514687846281000,9.944281005859375,14.32395076751709,-1.39395010471344,-2.3989500999450684
1771514687866698200,9.9646982421875,8.557950019836426,0.3960000276565552,-0.3930000066757202
1771514687887114500,9.985114501953126,8.02500057220459,-2.848050117492676,-0.843000054359436
1771514687907532300,10.0055322265625,11.56605052947998,-0.23295001685619354,-0.6060000061988831
1771514687927943400,10.025943359375,11.604000091552734,-2.218050003051758,1.045050024986267
1771514687948351200,10.046351318359376,9.553950309753418,-0.8370000123977661,-2.284050226211548
1771514687968762600,10.0667626953125,7.495050430297852,0.11295000463724136,1.6030501127243042
1771514687989174800,10.0871748046875,9.861000061035156,-2.139000177383423,-3.42900013923645
1771514688009586000,10.1075859375,13.608000755310059,1.6240500211715698,-0.43095001578330994
1771514688029995500,10.12799560546875,10.23705005645752,0.3330000042915344,1.6300500631332397
1771514688050405000,10.148405029296875,9.054000854492188,0.3570000231266022,1.804050087928772
1771514688070818300,10.168818359375,9.598050117492676,1.6600500345230103,-1.6140000820159912
1771514688091230500,10.18923046875,10.488000869750977,-0.9250500202178955,-0.3040500283241272
1771514688111637000,10.209636962890626,11.482050895690918,1.0420500040054321,-1.065000057220459
1771514688132044800,10.230044921875,10.924050331115723,0.18000000715255737,0.3439500033855438
1771514688152454100,10.2504541015625,9.68595027923584,0.012000000104308128,0.6360000371932983
1771514688172863200,10.27086328125,11.434050559997559,-1.6819500923156738,-0.3570000231266022
1771514688193272600,10.2912724609375,10.72095012664795,0.24705001711845398,-1.6300500631332397
1771514688213680400,10.311680419921874,9.859050750732422,-0.9280500411987305,-0.547950029373169
1771514688234090500,10.332090576171876,9.751049995422363,-1.7800500392913818,0.24795001745224
1771514688254503000,10.3525029296875,9.688950538635254,-2.376000165939331,-0.9030000567436218
1771514688274911000,10.372910888671875,10.918950080871582,-2.074050188064575,-0.6540000438690186
1771514688295316200,10.393316162109375,12.748050689697266,-1.3990501165390015,0.13305000960826874
1771514688315723800,10.413723876953124,11.872050285339355,-0.8530500531196594,0.7680000066757202
1771514688336130600,10.434130615234375,10.194000244140625,-0.4440000355243683,0.37005001306533813
1771514688356537900,10.454537841796874,9.229050636291504,0.325950026512146,1.009950041770935
1771514688376943900,10.47494384765625,8.105999946594238,1.152000069618225,2.3460001945495605
1771514688397349400,10.495349365234375,7.086000442504883,1.1069999933242798,2.8789501190185547
1771514688417759200,10.51575927734375,8.086950302124023,1.2739500999450684,3.166950225830078
1771514688438171000,10.5361708984375,8.640000343322754,1.4490001201629639,2.809950113296509
1771514688458580500,10.55658056640625,8.032050132751465,1.3920000791549683,2.4940500259399414
1771514688478988000,10.576988037109375,6.838950157165527,1.7479500770568848,3.1740002632141113
1771514688499394800,10.597394775390624,6.1020002365112305,1.8270001411437988,2.6740500926971436
1771514688519803400,10.617803466796875,6.3319501876831055,2.014050006866455,1.5870001316070557
1771514688540214800,10.63821484375,8.245050430297852,1.987950086593628,0.6600000262260437
1771514688560629200,10.658629150390626,9.625950813293457,1.7910001277923584,0.28200000524520874
1771514688581043200,10.679043212890624,10.96500015258789,1.4250000715255737,0.361050009727478
1771514688601452300,10.699452392578126,10.771050453186035,1.533000111579895,-0.09795000404119492
1771514688621862000,10.71986181640625,10.837950706481934,0.89805006980896,0.009000000543892384
1771514688642271500,10.740271484375,10.948050498962402,1.224000096321106,1.234950065612793
1771514688662683400,10.760683349609375,11.830950736999512,2.104950189590454,-0.06495000422000885
1771514688683095000,10.781094970703125,11.623050689697266,2.6170501708984375,-3.139050245285034
1771514688703502000,10.801502197265625,9.502050399780273,2.8950002193450928,-4.240050315856934
1771514688723907800,10.821907958984376,10.23900032043457,2.6680500507354736,-3.457050085067749
1771514688744312300,10.842312255859374,12.115950584411621,2.4880502223968506,-1.50600004196167
1771514688764715500,10.862715576171874,12.523050308227539,2.6460001468658447,-1.9440001249313354
1771514688785119200,10.883119140625,11.53695011138916,2.9380500316619873,-4.153950214385986
1771514688805524200,10.903524169921875,9.07800006866455,3.1270501613616943,-4.045950412750244
1771514688825930000,10.923929931640625,7.303950309753418,3.100950241088867,-2.3340001106262207
1771514688846334200,10.944334228515626,8.539050102233887,2.7229502201080322,-0.7450500130653381
1771514688866741500,10.964741455078125,11.878950119018555,2.470950126647949,-1.8360000848770142
1771514688887150600,10.985150634765626,12.646050453186035,2.7679500579833984,-3.2659502029418945
1771514688907558700,11.00555859375,11.116050720214844,2.6700000762939453,-3.510000228881836
1771514688927966500,11.025966552734374,10.132050514221191,2.044950008392334,-1.9390500783920288
1771514688948375800,11.046375732421875,10.665000915527344,1.6240500211715698,-1.1179500818252563
1771514688968783000,11.066783203125,11.37405014038086,1.3510500192642212,-1.4530500173568726
1771514688989187600,11.0871875,13.966950416564941,0.48900002241134644,-1.7239500284194946
1771514689009595600,11.107595703125,13.912050247192383,-0.5490000247955322,-2.3770501613616943
1771514689030003000,11.1280029296875,13.689001083374023,-0.9390000700950623,-1.3890000581741333
1771514689050403600,11.148403564453124,12.037050247192383,-0.11295000463724136,-0.4620000123977661
1771514689070802700,11.168802734375,9.367950439453125,0.5560500025749207,-1.051050066947937
1771514689091203600,11.18920361328125,8.439000129699707,0.12300000339746475,-1.8390001058578491
1771514689111605200,11.209605224609374,9.613950729370117,-0.0010500000789761543,-1.4269500970840454
1771514689132010800,11.2300107421875,12.38895034790039,-0.43695002794265747,-1.3189500570297241
1771514689152421600,11.250421630859375,13.31100082397461,-1.0140000581741333,-0.8830500245094299
1771514689172836000,11.270836181640625,12.571050643920898,0.043950002640485764,-1.0440000295639038
1771514689193250300,11.291250244140626,9.8899507522583,0.040950000286102295,-2.1739501953125
1771514689213660000,11.311659912109375,8.58495044708252,0.7450500130653381,-1.3930500745773315
1771514689234064400,11.332064453125,7.72005033493042,1.2120000123977661,-1.1850000619888306
1771514689254466600,11.352466552734375,9.157050132751465,0.5869500041007996,-2.8180501461029053
1771514689274869500,11.372869384765625,10.633950233459473,0.8380500674247742,-2.0020501613616943
1771514689295274200,11.393274169921876,10.045050621032715,0.7999500632286072,-1.9609501361846924
1771514689315678200,11.41367822265625,9.514050483703613,1.1160000562667847,-2.3370001316070557
1771514689336080000,11.434079833984375,8.668950080871582,0.9079500436782837,-2.1600000858306885
1771514689356483600,11.454483642578126,9.43005084991455,0.13005000352859497,-0.7560000419616699
1771514689376891100,11.47489111328125,12.385050773620605,-0.2550000250339508,-0.08100000023841858
1771514689397298700,11.495298583984376,14.58495044708252,-0.12300000339746475,0.556950032711029
1771514689417702400,11.515702392578126,14.434050559997559,0.07695000618696213,0.7489500641822815
1771514689438103800,11.536103759765625,11.968050956726074,-0.5560500025749207,1.4520000219345093
1771514689458511600,11.55651171875,9.483000755310059,-1.0279500484466553,0.8490000367164612
1771514689478923300,11.57692333984375,8.721000671386719,-1.0300500392913818,-0.40005001425743103
1771514689499334000,11.597333984375,9.079950332641602,-0.9469500184059143,-1.1730000972747803
1771514689519745300,11.617745361328126,7.677000522613525,0.09405000507831573,-0.8160000443458557
1771514689540152800,11.63815283203125,6.468000411987305,0.3930000066757202,-0.6850500106811523
1771514689560559600,11.6585595703125,7.14300012588501,0.1969500035047531,-1.1680500507354736
1771514689580968400,11.678968505859375,9.552000045776367,1.2529500722885132,-0.3469500243663788
1771514689601375500,11.69937548828125,12.634050369262695,1.5739500522613525,-0.04305000230669975
1771514689621780200,11.7197802734375,14.827051162719727,1.5109500885009766,0.16905000805854797
1771514689642184000,11.740183837890624,13.56705093383789,0.6970500349998474,-0.2370000183582306
1771514689662588700,11.760588623046875,10.813950538635254,0.7620000243186951,0.1189500093460083
1771514689682995700,11.78099560546875,10.612950325012207,0.8029500246047974,-0.7060500383377075
1771514689703400400,11.801400390625,11.724000930786133,1.2570000886917114,-1.294950008392334
1771514689723801600,11.821801513671875,10.527000427246094,0.8740500211715698,-1.2829500436782837
1771514689744202800,11.84220263671875,8.760000228881836,0.673050045967102,-0.7969500422477722
1771514689764604200,11.862604248046875,8.005050659179688,0.453000009059906,-0.9049500226974487
1771514689785005000,11.883005126953124,8.683050155639648,0.7240500450134277,-0.6250500082969666
1771514689805205200,11.903205322265626,10.335000038146973,0.9679500460624695,-0.8790000677108765
1771514689815511300,11.91351123046875,10.960050582885742,1.0180500745773315,-1.0249500274658203
1771514689836020500,11.9340205078125,10.86405086517334,0.8670000433921814,-0.45705002546310425
1771514689856428800,11.9544287109375,9.922950744628906,0.30195000767707825,0.19305001199245453
1771514689876833800,11.974833740234375,9.532950401306152,0.2350500077009201,0.6019500494003296
1771514689897234700,11.995234619140625,10.58595085144043,0.690000057220459,0.8419500589370728
1771514689917636000,12.015635986328125,11.644950866699219,0.9340500235557556,0.7129500508308411
1771514689938038800,12.036038818359375,11.235000610351562,0.5680500268936157,-0.14100000262260437
1771514689958443500,12.056443603515625,9.946950912475586,0.20595000684261322,-0.3450000286102295
1771514689978848800,12.076848876953125,9.531000137329102,0.1870500147342682,-0.2989500164985657
1771514689999251000,12.0972509765625,10.624950408935547,-0.11295000463724136,-0.6250500082969666
1771514690019649500,12.1176494140625,10.900050163269043,-0.46995002031326294,-0.8040000200271606
1771514690040049700,12.138049560546875,10.369050025939941,-0.3739500045776367,-0.49800002574920654
1771514690060453600,12.15845361328125,10.419000625610352,-0.05100000277161598,-0.12195000797510147
1771514690080857900,12.17885791015625,10.972050666809082,0.11295000463724136,-0.6630000472068787
1771514690101260300,12.19926025390625,10.596000671386719,0.43605002760887146,-0.9070500135421753
1771514690121664000,12.2196640625,9.69105052947998,0.8290500640869141,-0.9030000567436218
1771514690142068500,12.240068359375,9.358050346374512,1.2000000476837158,-0.814050018787384
1771514690162471700,12.2604716796875,9.496950149536133,1.2499500513076782,-0.6630000472068787
1771514690182878200,12.280878173828125,9.669000625610352,1.2790501117706299,-0.4620000123977661
1771514690203290600,12.30129052734375,10.098000526428223,1.1500500440597534,-0.4740000367164612
1771514690223702300,12.321702392578125,10.645950317382812,0.48705002665519714,-0.8260500431060791
1771514690244107800,12.342107666015625,10.591050148010254,-0.29100000858306885,-1.0890001058578491
1771514690264509700,12.362509765625,10.324950218200684,-0.24495001137256622,-0.8239500522613525
1771514690284913200,12.3829130859375,11.062950134277344,-0.08700000494718552,-0.6340500116348267
1771514690305320400,12.403320556640624,11.67300033569336,-0.30705001950263977,-1.1899501085281372
1771514690325729000,12.42372900390625,11.074950218200684,-0.27105000615119934,-1.377000093460083
1771514690346137600,12.4441376953125,11.074950218200684,-0.23100000619888306,-1.6090500354766846
1771514690366545400,12.46454541015625,10.837950706481934,-0.034050002694129944,-1.8840000629425049
1771514690386953000,12.484952880859375,10.017000198364258,0.36900001764297485,-1.6230000257492065
1771514690407359500,12.505359375,9.279000282287598,0.325950026512146,-1.7329500913619995
1771514690427764000,12.525763916015626,7.965000152587891,0.09105000644922256,-1.91100013256073
1771514690448168700,12.546168701171876,8.215950012207031,0.3960000276565552,-1.5679501295089722
1771514690468574500,12.566574462890625,10.057050704956055,1.2859500646591187,-0.8020500540733337
1771514690488979000,12.58697900390625,12.823050498962402,1.758000135421753,-0.4930500090122223
1771514690509384700,12.607384765625,13.636950492858887,1.5229500532150269,-0.5940000414848328
1771514690529790700,12.627790771484374,13.266000747680664,1.0470000505447388,-0.6769500374794006
1771514690550197800,12.64819775390625,10.52400016784668,0.11295000463724136,-1.4389500617980957
1771514690570603500,12.668603515625,7.158000469207764,-0.07500000298023224,-1.1749500036239624
1771514690591003400,12.68900341796875,5.791050434112549,-0.18000000715255737,-0.8280000686645508
1771514690611408000,12.709407958984375,6.949950218200684,0.19395001232624054,-0.30900001525878906
1771514690631812600,12.7298125,9.784050941467285,1.0920000076293945,0.29805001616477966
1771514690652211200,12.750211181640625,13.632000923156738,1.870050072669983,0.8040000200271606
1771514690672610300,12.7706103515625,15.865950584411621,1.1950500011444092,0.19305001199245453
1771514690693012200,12.79101220703125,11.797950744628906,0.5509500503540039,-0.675000011920929
1771514690713417200,12.811417236328126,7.618050575256348,0.8700000643730164,-0.9670500755310059
1771514690733825000,12.831824951171875,6.040050506591797,1.6840500831604004,-1.3189500570297241
1771514690754229200,12.852229248046875,8.830950736999512,3.1630501747131348,-0.9460500478744507
1771514690774630400,12.87263037109375,14.362051010131836,2.742000102996826,-0.9190500378608704
1771514690795033000,12.893033203125,15.993000984191895,1.0249500274658203,-1.1560500860214233
1771514690815433500,12.91343359375,12.067950248718262,0.15405000746250153,-0.49605002999305725
1771514690835834000,12.933834228515625,7.359000205993652,-0.031950000673532486,-0.25095000863075256
1771514690856236500,12.954236572265625,4.890000343322754,0.036000002175569534,-0.1360500007867813
1771514690876639000,12.974638916015625,5.017050266265869,0.23805001378059387,-0.04305000230669975
1771514690897040400,12.995040283203124,6.930000305175781,0.4600500166416168,0.1189500093460083
1771514690917442600,13.015442626953124,9.600000381469727,0.7810500264167786,1.0210500955581665
1771514690937850400,13.035850341796875,12.877950668334961,0.9150000214576721,2.0460000038146973
1771514690958260200,13.05626025390625,16.033050537109375,0.8770500421524048,2.3310000896453857
1771514690978663000,13.076662841796875,16.836000442504883,0.7380000352859497,1.5150001049041748
1771514690999061200,13.097061279296875,13.645950317382812,-0.00795000046491623,-0.28995001316070557
1771514691019459800,13.1174599609375,9.130949974060059,-0.07304999977350235,-1.0459500551223755
1771514691039860700,13.13786083984375,5.623050212860107,-0.11805000901222229,-1.2090001106262207
1771514691060265500,13.158265380859374,4.404000282287598,0.003000000026077032,-0.814050018787384
1771514691080671500,13.17867138671875,5.2420501708984375,0.016950000077486038,-0.42600002884864807
1771514691101080300,13.199080322265624,7.3690505027771,0.43095001578330994,-0.11205000430345535
1771514691121486300,13.219486328125,11.07705020904541,1.4989501237869263,0.8010000586509705
1771514691141890300,13.239890380859375,16.25400161743164,2.1979501247406006,1.6009501218795776
1771514691162293500,13.26029345703125,17.353050231933594,1.0300500392913818,-0.040950000286102295
1771514691182693600,13.280693603515624,14.215950965881348,1.2169500589370728,-0.8790000677108765
1771514691203094000,13.301093994140626,10.612950325012207,1.4730000495910645,-2.2069501876831055
1771514691223496700,13.32149658203125,8.04104995727539,1.831950068473816,-3.3730502128601074
1771514691243902500,13.34190234375,7.7059502601623535,1.771950125694275,-3.7159502506256104
1771514691264304400,13.362304443359376,8.575050354003906,0.9010500311851501,-3.1240501403808594
1771514691284704300,13.382704345703125,8.725950241088867,-0.492000013589859,-1.9750500917434692
1771514691305105400,13.40310546875,8.800050735473633,-1.5049500465393066,-0.49800002574920654
1771514691325510100,13.42351025390625,8.764050483703613,-1.7509500980377197,-0.07395000010728836
1771514691345919200,13.443919189453124,8.020050048828125,-1.437000036239624,0.013050000183284283
1771514691366325000,13.464324951171875,7.615050315856934,-0.9900000691413879,0.1279500126838684
1771514691386726100,13.48472607421875,8.515049934387207,-0.5320500135421753,0.4159500300884247
1771514691407129000,13.505129150390625,11.319000244140625,0.31905001401901245,0.8509500622749329
1771514691427535000,13.52553515625,14.029050827026367,0.9100500345230103,0.6580500602722168
1771514691447940000,13.545940185546876,14.322000503540039,1.3129500150680542,0.5590500235557556
1771514691468343000,13.566343017578125,13.348950386047363,1.686000108718872,0.06599999964237213
1771514691488743400,13.586743408203125,11.56095027923584,1.5660001039505005,-0.6420000195503235
1771514691509142800,13.607142822265626,9.676950454711914,1.5970500707626343,-1.1590501070022583
1771514691529543700,13.627543701171875,9.190950393676758,1.5829501152038574,-1.908000111579895
1771514691549945000,13.647945068359375,9.202950477600098,1.2360000610351562,-2.5500001907348633
1771514691570346500,13.668346435546875,8.653950691223145,1.2499500513076782,-1.7530500888824463
1771514691590749700,13.688749755859375,9.016050338745117,1.3870500326156616,-0.700950026512146
1771514691611155200,13.7091552734375,10.572000503540039,1.3099501132965088,-0.325950026512146
1771514691631562500,13.7295625,11.958000183105469,0.736050009727478,-0.2440500110387802
1771514691651969800,13.7499697265625,12.415950775146484,-0.07005000114440918,-0.32100000977516174
1771514691672380000,13.7703798828125,10.888050079345703,-0.7459500432014465,-0.4020000100135803
1771514691692792300,13.790792236328125,8.371950149536133,-0.922950029373169,-0.2779500186443329
1771514691713203700,13.81120361328125,7.1700005531311035,-0.690000057220459,-0.534000039100647
1771514691733617400,13.831617431640625,7.527000427246094,-0.28095000982284546,-0.6060000061988831
1771514691754027800,13.85202783203125,9.157050132751465,0.22605000436306,-0.2850000262260437
1771514691774433300,13.872433349609375,11.910000801086426,0.7330500483512878,0.04005000367760658
1771514691794837000,13.8928369140625,13.708950996398926,0.9220500588417053,-0.12000000476837158
1771514691815243300,13.9132431640625,13.381051063537598,1.0470000505447388,-0.39000001549720764
1771514691835652900,13.93365283203125,11.60205078125,1.3050000667572021,-0.32100000977516174
1771514691856061000,13.95406103515625,10.147950172424316,1.377000093460083,-0.8160000443458557
1771514691876465400,13.97446533203125,9.787050247192383,1.5640500783920288,-0.8329500555992126
1771514691896867800,13.994867919921875,10.345050811767578,0.9919500350952148,-1.125
1771514691917272000,14.01527197265625,10.606050491333008,0.46695002913475037,-0.9360000491142273
1771514691937678800,14.035678955078126,9.696000099182129,0.3379500210285187,-0.48405003547668457
1771514691958086100,14.056086181640625,9.121050834655762,0.2850000262260437,-0.547950029373169
1771514691978490000,14.076489990234375,8.57805061340332,0.5419500470161438,-0.33705002069473267
1771514691998892800,14.096892822265625,8.901000022888184,0.40005001425743103,-0.39705002307891846
1771514692019300900,14.11730078125,9.065999984741211,0.40995001792907715,-0.47895002365112305
1771514692039714000,14.137714111328124,9.672000885009766,0.43905001878738403,-0.5070000290870667
1771514692060123400,14.158123291015626,9.906000137329102,0.703950047492981,-0.28005000948905945
1771514692080529400,14.178529296875,10.627050399780273,1.0180500745773315,-0.14805001020431519
1771514692100940300,14.198940185546874,11.677950859069824,1.3050000667572021,0.004050000105053186
1771514692121356800,14.219356689453125,13.050000190734863,1.5829501152038574,0.41805002093315125
1771514692141775000,14.239775146484375,13.905000686645508,1.4440500736236572,0.3730500042438507
1771514692162189300,14.260189208984375,12.516000747680664,0.7399500608444214,-0.3930000066757202
1771514692182600400,14.280600341796875,10.20300006866455,0.4819500148296356,-0.856950044631958
1771514692203011300,14.30101123046875,8.163000106811523,0.3960000276565552,-1.3620001077651978
1771514692223423700,14.321423828125,7.210050106048584,0.4650000333786011,-1.5829501152038574
1771514692243835100,14.341835205078125,7.267950534820557,0.6850500106811523,-1.519950032234192
1771514692264244500,14.362244384765624,7.383000373840332,1.1260499954223633,-1.2880500555038452
1771514692284655600,14.382655517578126,9.045000076293945,1.6240500211715698,-1.1610000133514404
1771514692305065000,14.40306494140625,11.941950798034668,1.6189501285552979,-0.7900500297546387
1771514692325471700,14.4234716796875,13.531050682067871,1.0180500745773315,-0.37605002522468567
1771514692345882600,14.443882568359374,11.973000526428223,0.453000009059906,0.025050001218914986
1771514692366293500,14.46429345703125,9.9660005569458,0.3720000088214874,0.16200000047683716
1771514692386701300,14.484701416015625,10.183950424194336,0.14400000870227814,-0.43095001578330994
1771514692407110100,14.505110107421874,9.772050857543945,-0.19995000958442688,-0.675000011920929
1771514692427519000,14.52551904296875,8.422050476074219,-0.6330000162124634,-0.3040500283241272
1771514692447926500,14.545926513671875,8.41200065612793,-0.9040500521659851,0.1360500007867813
1771514692468330200,14.566330322265625,9.835050582885742,-0.28095000982284546,0.49500003457069397
1771514692488733400,14.5867333984375,12.148050308227539,0.24195000529289246,0.17400000989437103
1771514692509137700,14.6071376953125,13.981950759887695,0.5940000414848328,-0.07395000010728836
1771514692529541000,14.627541015625,12.92595100402832,0.46995002031326294,-0.51705002784729
1771514692549944600,14.647944580078125,10.603050231933594,0.7740000486373901,-0.7399500608444214
1771514692570350800,14.668350830078126,9.648000717163086,1.1740500926971436,-1.350000023841858
1771514692590758400,14.68875830078125,9.576000213623047,1.2340500354766846,-1.981950044631958
1771514692611167000,14.7091669921875,9.502050399780273,0.9220500588417053,-1.9009500741958618
1771514692631574500,14.729574462890625,9.468000411987305,0.5920500159263611,-1.4479501247406006
1771514692651976200,14.74997607421875,10.009050369262695,0.3910500109195709,-0.9120000600814819
1771514692672381200,14.770381103515625,9.898950576782227,0.25394999980926514,-0.7780500650405884
1771514692692793300,14.79079345703125,9.637950897216797,0.42195001244544983,-0.5719500184059143
1771514692713204200,14.811204345703125,9.925950050354004,0.6570000052452087,-0.3139500021934509
1771514692733610200,14.8316103515625,10.333050727844238,0.5179499983787537,-0.2939999997615814
1771514692754019600,14.85201953125,10.53600025177002,0.208950012922287,-0.2560500204563141
1771514692774430700,14.8724306640625,9.95205020904541,0.040950000286102295,-0.2989500164985657
1771514692794839600,14.892839599609376,9.645000457763672,0.38805001974105835,-0.45000001788139343
1771514692815251500,14.91325146484375,10.653000831604004,0.9199500679969788,-0.48795002698898315
1771514692835660300,14.933660400390625,11.700000762939453,0.9150000214576721,-0.7279500365257263
1771514692856063500,14.9540634765625,11.736001014709473,0.7879500389099121,-0.49800002574920654
1771514692876466700,14.974466796875,11.01300048828125,0.5059500336647034,-0.831000030040741
1771514692896873200,14.994873291015624,9.886950492858887,0.49800002574920654,-0.9340500235557556
1771514692917282600,15.015282470703125,8.632950782775879,0.5940000414848328,-0.8929500579833984
1771514692937694000,15.03569384765625,8.271000862121582,0.7500000596046448,-0.6100500226020813
1771514692958107400,15.056107421875,9.688950538635254,1.0399500131607056,-0.5269500017166138
1771514692978518000,15.07651806640625,11.932050704956055,1.0009500980377197,-0.6580500602722168
1771514692998925800,15.09692578125,12.15195083618164,0.6570000052452087,-0.43605002760887146
1771514693019338000,15.117337890625,10.914000511169434,0.5179499983787537,-0.5239500403404236
1771514693039750000,15.13775,9.657000541687012,0.7260000109672546,-0.7849500179290771
1771514693060157700,15.15815771484375,9.142950057983398,0.7549500465393066,-1.0890001058578491
1771514693080566800,15.17856689453125,9.732000350952148,0.42195001244544983,-1.2780001163482666
1771514693100979700,15.198979736328125,10.048050880432129,0.003000000026077032,-0.8380500674247742
1771514693121395200,15.219395263671874,9.897000312805176,-0.33105000853538513,-0.5580000281333923
1771514693141810000,15.239809814453125,9.748050689697266,-0.07304999977350235,-0.364050030708313
1771514693162217200,15.26021728515625,9.897000312805176,0.33105000853538513,-0.16995000839233398
1771514693182620700,15.28062060546875,10.680000305175781,0.5250000357627869,-0.24195000529289246
1771514693203025400,15.301025390625,11.949000358581543,0.37905001640319824,-0.2659500241279602
1771514693223432000,15.321431884765625,11.980051040649414,-0.003000000026077032,-0.3660000264644623
1771514693243840300,15.34184033203125,10.492950439453125,-0.07304999977350235,-0.34200000762939453
1771514693264245800,15.362245849609375,9.805950164794922,-0.12105000764131546,-0.6370500326156616
1771514693284652500,15.382652587890625,9.918000221252441,-0.3430500030517578,-0.7729500532150269
1771514693305064200,15.403064208984375,9.8899507522583,-0.8940000534057617,-0.7330500483512878
1771514693325477600,15.4234775390625,9.277050018310547,-1.1430000066757202,-0.4620000123977661
1771514693345890800,15.443890869140626,9.325050354003906,-0.987000048160553,-0.3139500021934509
1771514693366300400,15.464300537109375,10.165050506591797,-0.4849500358104706,-0.47895002365112305
1771514693386707700,15.484707763671874,11.1510009765625,-0.04605000093579292,-0.4330500066280365
1771514693407115800,15.50511572265625,12.183000564575195,-0.14205001294612885,-0.4600500166416168
1771514693427523800,15.52552392578125,11.721000671386719,-0.5179499983787537,-0.7729500532150269
1771514693447933400,15.545933349609374,10.491000175476074,-0.5610000491142273,-0.9070500135421753
1771514693468347000,15.566346923828124,10.030950546264648,-0.20400001108646393,-0.7710000276565552
1771514693488759800,15.586759765625,10.315950393676758,-0.1570500135421753,-1.0800000429153442
1771514693509170000,15.607169921875,10.531050682067871,-0.2569500207901001,-1.360050082206726
1771514693529579800,15.627579833984376,9.99000072479248,-0.5760000348091125,-1.374000072479248
1771514693549990000,15.647989990234375,8.944050788879395,-0.453000009059906,-0.9529500603675842
1771514693570400500,15.668400390625,8.731050491333008,-0.15405000746250153,-0.9259500503540039
1771514693590812400,15.6888125,9.307950019836426,-0.08700000494718552,-1.0609500408172607
1771514693611223600,15.7092236328125,10.558050155639648,0.036000002175569534,-0.49800002574920654
1771514693631634400,15.729634521484375,11.355000495910645,-0.42900002002716064,-0.14805001020431519
1771514693652047600,15.750047607421875,11.41200065612793,-0.6400500535964966,-0.06705000251531601
1771514693672461600,15.770461669921875,11.391000747680664,-0.41805002093315125,-0.31800001859664917
1771514693692873500,15.79087353515625,10.609950065612793,-0.6400500535964966,-0.8119500279426575
1771514693713286000,15.811285888671875,9.531000137329102,-0.5730000138282776,-0.6150000095367432
1771514693733698800,15.83169873046875,9.556950569152832,-0.44895002245903015,-0.2989500164985657
1771514693754114000,15.852114013671875,9.765000343322754,-0.24495001137256622,-0.06195000186562538
1771514693774527000,15.87252685546875,10.339950561523438,0.04605000093579292,-0.037950001657009125
1771514693794936300,15.892936279296874,10.906950950622559,0.22095000743865967,-0.4549500346183777
1771514693815343900,15.91334375,10.990950584411621,0.5010000467300415,-0.5719500184059143
1771514693835750000,15.93375,10.993050575256348,0.09105000644922256,-0.8880000710487366
1771514693856155100,15.954155029296874,9.850950241088867,-0.5370000004768372,-1.207050085067749
1771514693876561400,15.9745615234375,8.785950660705566,-0.7579500079154968,-1.290000081062317
1771514693896969700,15.9949697265625,9.085050582885742,-0.5010000467300415,-1.297950029373169
1771514693917379300,16.01537939453125,10.219950675964355,-0.22095000743865967,-1.120050072669983
1771514693937790000,16.0357900390625,12.016050338745117,-0.027000000700354576,-0.5890500545501709
1771514693958201600,16.05620166015625,12.492000579833984,-0.6570000052452087,-0.6370500326156616
1771514693978612000,16.076612060546875,10.591050148010254,-0.9040500521659851,-0.5629500150680542
1771514693999021000,16.09702099609375,9.178950309753418,-0.8839500546455383,-0.8830500245094299
1771514694019429600,16.1174296875,8.781000137329102,-0.6349500417709351,-0.9409500360488892
1771514694039837700,16.137837646484375,9.307950019836426,-0.5989500284194946,-0.7800000309944153
1771514694060246300,16.158246337890624,10.456950187683105,-0.5490000247955322,-0.4120500087738037
1771514694080656100,16.17865625,11.43600082397461,-0.37005001306533813,0.2070000171661377
1771514694101066500,16.19906640625,11.88900089263916,-0.35805001854896545,0.1279500126838684
1771514694121477600,16.2194775390625,10.96500015258789,-0.3430500030517578,-0.51705002784729
1771514694141887200,16.23988720703125,9.589950561523438,0.036000002175569534,-0.7279500365257263
1771514694162298600,16.260298583984376,9.576000213623047,0.3379500210285187,-0.970050036907196
1771514694182709500,16.28070947265625,10.348950386047363,0.364050030708313,-1.1350500583648682
1771514694203115000,16.301114990234375,10.641000747680664,0.019950000569224358,-1.1869500875473022
1771514694223521800,16.321521728515624,10.318050384521484,-0.28095000982284546,-1.1080501079559326
1771514694243930000,16.34193017578125,8.890950202941895,-0.7240500450134277,-1.2880500555038452
1771514694264335400,16.36233544921875,7.572000503540039,-0.49695003032684326,-0.7540500164031982
1771514694284742400,16.382742431640626,9.258000373840332,0.24705001711845398,-0.34905001521110535
1771514694305152000,16.403152099609375,11.857950210571289,-0.29100000858306885,-1.081950068473816
1771514694325560800,16.423560791015625,12.507000923156738,0.4429500102996826,-0.14595000445842743
1771514694345971500,16.443971435546874,13.52400016784668,-0.23595000803470612,-0.39000001549720764
1771514694366380000,16.464380126953124,11.605950355529785,-0.8460000157356262,-0.8520000576972961
1771514694386788000,16.4847880859375,9.055950164794922,-1.2000000476837158,-0.7920000553131104
1771514694407196200,16.505196044921874,8.86305046081543,-1.1790000200271606,-0.38805001974105835
1771514694427597800,16.525597900390625,9.729000091552734,-0.9850500226020813,-0.17205001413822174
1771514694447997700,16.545997802734377,11.143950462341309,-0.6520500183105469,-0.06000000238418579
1771514694468401400,16.5664013671875,11.9010009765625,-0.8410500288009644,-0.18405000865459442
1771514694488808400,16.586808349609374,9.583050727844238,-0.9199500679969788,-0.30900001525878906
1771514694509215200,16.60721533203125,7.615050315856934,0.208950012922287,-0.07200000435113907
1771514694529625600,16.62762548828125,9.301050186157227,1.3750500679016113,-0.2779500186443329
1771514694550038300,16.648038330078126,10.941000938415527,0.8670000433921814,-1.4410500526428223
1771514694570447400,16.668447265625,10.753950119018555,0.6520500183105469,-0.5460000038146973
1771514694590856400,16.6888564453125,11.724000930786133,0.8410500288009644,0.286050021648407
1771514694611265300,16.709265380859375,14.233050346374512,0.6040500402450562,-0.08400000631809235
1771514694631673900,16.729673828125,11.319000244140625,-0.30705001950263977,-0.9739500284194946
1771514694652080400,16.750080322265624,8.116050720214844,-0.06105000153183937,-0.2939999997615814
1771514694672485400,16.7704853515625,7.81095027923584,0.4510500133037567,-0.43800002336502075
1771514694692891400,16.790891357421874,8.518050193786621,1.308000087738037,-0.5910000205039978
1771514694713298400,16.81129833984375,10.282050132751465,1.9330500364303589,-0.5629500150680542
1771514694733709800,16.831709716796876,12.19800090789795,1.76295006275177,-0.5410500168800354
1771514694754122000,16.8521220703125,11.559000968933105,1.7839500904083252,-0.3540000021457672
1771514694774530300,16.8725302734375,9.744000434875488,1.8850500583648682,-0.4330500066280365
1771514694794939000,16.89293896484375,8.626049995422363,2.111999988555908,-0.6700500249862671
1771514694815350300,16.913350341796875,8.356950759887695,1.8610501289367676,-0.7729500532150269
1771514694835764000,16.933763916015625,10.222050666809082,1.8630000352859497,-0.4120500087738037
1771514694856176000,16.954176025390623,11.934000968933105,0.8070000410079956,-0.48405003547668457
1771514694876586200,16.974586181640625,10.492950439453125,0.3570000231266022,-0.18405000865459442
1771514694896996600,16.99499658203125,9.394050598144531,-0.12300000339746475,-0.26295000314712524
1771514694917406200,17.01540625,8.961000442504883,-0.22395001351833344,-0.40005001425743103
1771514694937815600,17.035815673828125,9.724050521850586,0.004950000438839197,-0.024000000208616257
1771514694958224000,17.056223876953126,11.206950187683105,-0.013050000183284283,0.16395001113414764
1771514694978634000,17.076634033203124,12.526050567626953,0.034050002694129944,0.19995000958442688
1771514694999046400,17.09704638671875,11.974950790405273,0.37905001640319824,0.1399500072002411
1771514695019461400,17.11746142578125,10.606050491333008,0.6130500435829163,-0.26805001497268677
1771514695039874800,17.137874755859375,9.325050354003906,0.5560500025749207,-0.7129500508308411
1771514695060286200,17.1582861328125,8.138999938964844,0.6349500417709351,-0.534000039100647
1771514695080695300,17.1786953125,8.896050453186035,0.8460000157356262,-0.3040500283241272
1771514695101099800,17.199099853515627,10.926000595092773,1.2739500999450684,0.018000001087784767
1771514695121505000,17.219505126953123,12.604950904846191,0.8220000267028809,0.09195000678300858
1771514695141911600,17.23991162109375,11.913000106811523,0.15105000138282776,0.19095000624656677
1771514695162321000,17.26032080078125,10.402050018310547,-0.015000000596046448,0.05895000323653221
1771514695182733000,17.280733154296875,8.740050315856934,0.09600000083446503,0.016050001606345177
1771514695203145200,17.301145263671874,7.684950351715088,0.027000000700354576,0.09195000678300858
1771514695223559400,17.321559326171876,8.116050720214844,0.24900001287460327,0.45900002121925354
1771514695243972600,17.34197265625,10.18695068359375,0.25200000405311584,0.38895002007484436
1771514695264381700,17.362381591796876,12.049050331115723,0.031950000673532486,-0.07905000448226929
1771514695284789200,17.382789306640625,12.118950843811035,0.022050000727176666,-0.33705002069473267
1771514695305194000,17.403194091796873,11.03895092010498,0.39795002341270447,-0.6390000581741333
1771514695325597000,17.423596923828125,10.492950439453125,1.0990500450134277,-0.9000000357627869
1771514695346004700,17.444004638671874,10.809000968933105,1.576050043106079,-1.5510001182556152
1771514695366210000,17.4642099609375,11.041050910949707,1.207050085067749,-1.815000057220459
1771514695376518100,17.47451806640625,10.471050262451172,0.8359500169754028,-1.7569501399993896
1771514695397030700,17.49503076171875,9.532950401306152,0.3910500109195709,-1.4389500617980957
1771514695417441300,17.515441162109376,8.896050453186035,0.43095001578330994,-1.321950078010559
1771514695437853200,17.535853271484374,9.432000160217285,0.6829500198364258,-0.8689500689506531
1771514695458262800,17.5562626953125,11.010000228881836,0.41895002126693726,-0.48600003123283386
1771514695478669600,17.576669677734376,11.086950302124023,-0.48900002241134644,-0.45705002546310425
1771514695499075800,17.597075927734377,9.610050201416016,-0.5760000348091125,0.1789500117301941
1771514695519481600,17.617481689453125,9.37695026397705,-0.3430500030517578,0.013050000183284283
1771514695539887400,17.637887451171874,10.026000022888184,0.1680000126361847,-0.16500000655651093
1771514695560293000,17.658293212890626,11.206950187683105,0.46695002913475037,-0.024000000208616257
1771514695580698000,17.678697998046875,12.157050132751465,-0.006000000052154064,-0.22500000894069672
1771514695601106400,17.6991064453125,10.821000099182129,-0.3360000252723694,-0.6340500116348267
1771514695621517800,17.719517822265626,8.898000717163086,-0.11295000463724136,-1.0579500198364258
1771514695641925400,17.73992529296875,8.227950096130371,0.6010500192642212,-0.9580500721931458
1771514695662331600,17.76033154296875,9.930000305175781,0.8700000643730164,-0.8470500111579895
1771514695682740000,17.780739990234373,11.659050941467285,0.6469500064849854,-0.7090500593185425
1771514695703148800,17.801148681640626,11.34795093536377,0.1489500105381012,-0.6919500231742859
1771514695723556900,17.821556884765624,9.862950325012207,0.34995001554489136,-0.7519500255584717
1771514695743966200,17.84196630859375,9.892050743103027,1.1380500793457031,-0.598050057888031
1771514695764374000,17.8623740234375,11.752050399780273,1.0920000076293945,-1.111050009727478
1771514695784779800,17.88277978515625,12.873000144958496,0.31200000643730164,-1.152000069618225
1771514695805185300,17.903185302734375,10.990950584411621,-0.5370000004768372,-1.0990500450134277
1771514695825589800,17.92358984375,8.785950660705566,-0.4819500148296356,-0.7249500155448914
1771514695845995300,17.943995361328124,7.737000465393066,-0.003000000026077032,-0.7180500626564026
1771514695866404900,17.96440478515625,8.773950576782227,0.6520500183105469,-0.6420000195503235
1771514695886816000,17.98481591796875,11.005050659179688,0.5250000357627869,-0.6630000472068787
1771514695907224300,18.005224365234376,11.683050155639648,0.25394999980926514,-0.2460000067949295
1771514695927631600,18.025631591796873,10.75200080871582,0.14400000870227814,-0.1099500060081482
1771514695948038100,18.0460380859375,8.97705078125,0.3720000088214874,-0.7660500407218933
1771514695968447000,18.066447021484375,8.491050720214844,0.9799500703811646,-0.6340500116348267
1771514695988855300,18.086855224609376,10.5600004196167,1.3129500150680542,-0.6970500349998474
1771514696009257500,18.107257568359376,12.640950202941895,0.8790000677108765,-1.0920000076293945
1771514696029661000,18.127660888671876,11.937000274658203,0.32100000977516174,-0.895050048828125
1771514696050068700,18.14806884765625,9.997050285339355,0.00795000046491623,-0.9600000381469727
1771514696070477600,18.1684775390625,8.544000625610352,-0.003000000026077032,-1.290000081062317
1771514696090884000,18.188884033203124,8.677950859069824,0.024000000208616257,-1.264050006866455
1771514696111291100,18.209291015625,9.930000305175781,-0.07500000298023224,-0.9049500226974487
1771514696131699200,18.22969921875,11.01300048828125,-0.13005000352859497,-0.286950021982193
1771514696152104400,18.2501044921875,11.910000801086426,-0.07304999977350235,0.33900001645088196
1771514696172511200,18.27051123046875,12.463950157165527,-0.21195000410079956,0.12600000202655792
1771514696192917200,18.290917236328124,11.281050682067871,-0.3049500286579132,-0.12405000627040863
1771514696213323300,18.3113232421875,10.026000022888184,-0.6709500551223755,-0.6340500116348267
1771514696233730800,18.331730712890625,8.544000625610352,-0.5640000104904175,-0.7950000166893005
1771514696254139100,18.35213916015625,9.022950172424316,0.05595000088214874,-0.6010500192642212
1771514696274550000,18.372550048828124,10.294050216674805,0.2850000262260437,-0.9529500603675842
1771514696294956500,18.39295654296875,9.847050666809082,0.5490000247955322,-0.8640000224113464
1771514696315363800,18.41336376953125,9.669000625610352,0.9030000567436218,-0.673050045967102
1771514696335773400,18.4337734375,9.531000137329102,1.336050033569336,-0.9979500770568848
1771514696356183300,18.454183349609377,9.016050338745117,2.074050188064575,-1.546950101852417
1771514696376595700,18.474595703125,9.612000465393066,2.9770500659942627,-1.9440001249313354
1771514696397010000,18.495010009765625,12.382050514221191,3.0289502143859863,-2.16195011138916
1771514696417425700,18.51542578125,15.322051048278809,1.9830000400543213,-2.1600000858306885
1771514696437836300,18.535836181640626,14.427000999450684,0.47700002789497375,-2.1760501861572266
1771514696458245000,18.5562451171875,10.704000473022461,-0.21900001168251038,-1.8600001335144043
1771514696478657800,18.57665771484375,8.599050521850586,-0.6190500259399414,-1.585050106048584
1771514696499070500,18.597070556640624,7.273050308227539,-1.0279500484466553,-1.2450000047683716
1771514696519481300,18.6174814453125,6.427950382232666,-1.311000108718872,-0.33000001311302185
1771514696539890000,18.637889892578126,5.797950267791748,-1.7010000944137573,0.2530499994754791
1771514696560300800,18.65830078125,5.379000186920166,-1.6630500555038452,0.4420500099658966
1771514696580715800,18.6787158203125,4.81095027923584,-1.1050500869750977,0.5040000081062317
1771514696601131300,18.69913134765625,7.0759501457214355,0.42900002002716064,1.2030000686645508
1771514696621544000,18.7195439453125,16.788000106811523,1.8060001134872437,3.016050100326538
1771514696641954800,18.739954833984374,22.96500015258789,-1.054050087928772,1.4719500541687012
1771514696662365700,18.76036572265625,18.255001068115234,-1.062000036239624,1.0770000219345093
1771514696682776000,18.780776123046873,9.897000312805176,-0.4459500312805176,0.05700000375509262
1771514696703186200,18.801186279296875,5.773950099945068,0.40995001792907715,-0.9910500645637512
1771514696723597000,18.82159716796875,6.034950256347656,0.9220500588417053,-1.546950101852417
1771514696744007400,18.84200732421875,9.844050407409668,0.7519500255584717,-1.4580000638961792
1771514696764420600,18.862420654296876,12.44205093383789,0.32100000977516174,-0.7590000629425049
1771514696784833500,18.88283349609375,12.313050270080566,0.17295001447200775,-0.05700000375509262
1771514696805242600,18.90324267578125,10.7920503616333,0.22095000743865967,-0.5509500503540039
1771514696825650700,18.923650634765625,9.490050315856934,0.4939500093460083,-1.4869500398635864
1771514696846058500,18.94405859375,8.455950736999512,0.43905001878738403,-1.6300500631332397
1771514696866470700,18.964470703125,8.32395076751709,0.11805000901222229,-1.5319501161575317
1771514696886886000,18.984885986328123,8.773950576782227,-0.06300000101327896,-1.2570000886917114
1771514696907301400,19.00530126953125,9.313050270080566,-0.031950000673532486,-1.0609500408172607
1771514696927713500,19.025713623046876,10.696950912475586,-0.19995000958442688,-0.7830000519752502
1771514696948125200,19.046125244140626,11.740050315856934,-0.583050012588501,-0.5290500521659851
1771514696968536000,19.0665361328125,12.171000480651855,-0.8050500154495239,-0.5580000281333923
1771514696988944600,19.086944580078125,11.041050910949707,-0.8580000400543213,-0.6100500226020813
1771514697009355000,19.10735498046875,10.246050834655762,-0.8479500412940979,-0.5100000500679016
1771514697029765600,19.127765625,10.234050750732422,-0.9040500521659851,-0.6150000095367432
1771514697050176000,19.148176025390626,10.747050285339355,-0.8959500193595886,-0.6079500317573547
1771514697070584800,19.168584716796875,10.584000587463379,-0.8719500303268433,-0.8809500336647034
1771514697090991600,19.18899169921875,10.552950859069824,-0.3360000252723694,-0.5389500260353088
1771514697111401000,19.20940087890625,10.732050895690918,-0.05100000277161598,-0.5070000290870667
1771514697131816200,19.229816162109376,11.041050910949707,-0.015000000596046448,-0.42795002460479736
1771514697152235500,19.250235595703124,10.591050148010254,-0.5850000381469727,-0.7060500383377075
1771514697172651500,19.270651611328127,9.157050132751465,-0.7020000219345093,-0.6220500469207764
1771514697193064200,19.291064208984373,8.704950332641602,-0.625950038433075,-0.673050045967102
1771514697213475000,19.31147509765625,9.006000518798828,-0.17100000381469727,-0.2850000262260437
1771514697233885000,19.331885009765625,11.09595012664795,-0.13305000960826874,0.04905000329017639
1771514697254293000,19.35229296875,12.328950881958008,-1.0420500040054321,0.04500000178813934
1771514697274698800,19.37269873046875,10.633950233459473,-1.4110500812530518,-0.0019500000635161996
1771514697295105300,19.393105224609375,8.950950622558594,-1.1430000066757202,-0.18405000865459442
1771514697315509800,19.413509765625,9.415950775146484,-0.36705002188682556,-0.20295001566410065
1771514697335913700,19.433913818359375,11.307000160217285,-0.3840000033378601,-0.5910000205039978
1771514697356319000,19.454319091796876,11.740050315856934,-0.931950032711029,-0.8329500555992126
1771514697376726500,19.4747265625,11.146950721740723,-0.9010500311851501,-0.7330500483512878
1771514697397139000,19.495138916015627,10.693950653076172,-0.6670500040054321,-1.2139500379562378
1771514697417555000,19.515554931640626,10.111950874328613,-0.3550500273704529,-1.4580000638961792
1771514697437972200,19.53597216796875,9.717000007629395,-0.322050005197525,-1.3339500427246094
1771514697458385000,19.556385009765624,10.182000160217285,-0.06300000101327896,-0.7159500122070312
1771514697478792200,19.576792236328124,11.13705062866211,-0.6070500016212463,-0.5749500393867493
1771514697499199000,19.597198974609373,10.28700065612793,-1.1479500532150269,-0.18405000865459442
1771514697519606300,19.617606201171874,9.094950675964355,-1.1670000553131104,0.032999999821186066
1771514697540013300,19.638013427734375,8.809950828552246,-0.753000020980835,0.09195000678300858
1771514697560420900,19.6584208984375,10.060050010681152,-0.5659500360488892,-0.32805001735687256
1771514697580827600,19.67882763671875,11.06505012512207,-0.5590500235557556,-0.27300000190734863
1771514697601233400,19.6992333984375,11.581950187683105,-0.8149500489234924,-0.17505000531673431
1771514697621637600,19.7196376953125,11.329050064086914,-0.76500004529953,-0.5509500503540039
1771514697642045400,19.74004541015625,10.048050880432129,-0.6330000162124634,-1.1989500522613525
1771514697662455600,19.76045556640625,9.38700008392334,-0.06105000153183937,-1.3410000801086426
1771514697682862300,19.7808623046875,10.540950775146484,-0.0010500000789761543,-1.2310500144958496
1771514697703272000,19.80127197265625,11.665950775146484,-0.2550000250339508,-1.1710500717163086
1771514697723683600,19.82168359375,10.807050704956055,-0.7240500450134277,-0.9820500612258911
1771514697744096800,19.8420966796875,9.628950119018555,-0.76500004529953,-0.775950014591217
1771514697764507600,19.862507568359376,9.246000289916992,-0.6690000295639038,-0.6820500493049622
1771514697784915500,19.88291552734375,8.997000694274902,-0.2950500249862671,-0.5460000038146973
1771514697805326000,19.903326171875,9.9660005569458,-0.30000001192092896,-0.43995001912117004
1771514697825737200,19.9237373046875,11.257050514221191,-0.35295000672340393,-0.12000000476837158
1771514697846147800,19.94414794921875,12.112051010131836,-0.8290500640869141,-0.28995001316070557
1771514697866554400,19.964554443359376,10.182000160217285,-0.8050500154495239,-0.361050009727478
1771514697886960600,19.984960693359376,9.021000862121582,-0.5520000457763672,-0.6390000581741333
1771514697907372000,20.0053720703125,9.049050331115723,-0.0970500037074089,-0.6769500374794006
1771514697927783000,20.025782958984376,10.845000267028809,-0.17805001139640808,-0.8520000576972961
1771514697948189700,20.046189697265625,11.283000946044922,-0.7480500340461731,-0.6580500602722168
1771514697968593000,20.066593017578125,10.492950439453125,-0.9490500688552856,-0.48405003547668457
1771514697988995300,20.086995361328125,9.516000747680664,-0.7740000486373901,-0.8620500564575195
1771514698009398000,20.10739794921875,9.753000259399414,-0.34095001220703125,-0.8590500354766846
1771514698029800700,20.12780078125,10.82295036315918,-0.46095001697540283,-0.7590000629425049
1771514698050203000,20.148202880859376,11.475000381469727,-0.7260000109672546,-0.7129500508308411
1771514698070605600,20.16860546875,11.223000526428223,-0.8719500303268433,-0.6889500617980957
1771514698091007700,20.1890078125,10.021050453186035,-0.778950035572052,-0.7249500155448914
1771514698111410400,20.209410400390624,9.432000160217285,-0.6310500502586365,-0.9070500135421753
1771514698131813000,20.229813232421876,10.110000610351562,-0.2950500249862671,-0.9120000600814819
1771514698152217300,20.25021728515625,11.173050880432129,-0.15405000746250153,-0.8590500354766846
1771514698172624600,20.270624755859377,11.628000259399414,-0.12300000339746475,-0.8910000324249268
1771514698193032700,20.29103271484375,10.432950019836426,-0.47505003213882446,-1.111050009727478
1771514698213438700,20.311438720703126,8.767050743103027,-0.4939500093460083,-0.9030000567436218
1771514698233842200,20.33184228515625,8.59695053100586,-0.23805001378059387,-0.8880000710487366
1771514698254244600,20.35224462890625,10.02405071258545,0.1469999998807907,-0.7470000386238098
1771514698274647000,20.37264697265625,11.616000175476074,0.07200000435113907,-0.4909500181674957
1771514698295049700,20.3930498046875,12.057000160217285,-0.43695002794265747,-0.2989500164985657
1771514698315450600,20.41345068359375,10.942950248718262,-0.8530500531196594,-0.4759500324726105
1771514698335852300,20.433852294921873,9.351000785827637,-0.9750000238418579,-0.775950014591217
1771514698356255700,20.454255859375,8.57805061340332,-0.8800500631332397,-0.6510000228881836
1771514698376658200,20.474658203125,9.363000869750977,-0.8149500489234924,-0.43095001578330994
1771514698397059300,20.495059326171877,11.266050338745117,-0.5520000457763672,-0.13905000686645508
1771514698417460000,20.5154599609375,13.057050704956055,-0.5440500378608704,-0.07695000618696213
1771514698437862100,20.535862060546876,12.301050186157227,-0.8410500288009644,-0.3660000264644623
1771514698458266000,20.55626611328125,9.418050765991211,-0.8410500288009644,-0.5700000524520874
1771514698478670300,20.57667041015625,7.6459503173828125,-0.8719500303268433,-0.6970500349998474
1771514698499073500,20.597073486328124,7.111950397491455,-0.7240500450134277,-0.48795002698898315
1771514698519477000,20.61747705078125,8.767050743103027,-0.2760000228881836,-0.21300001442432404
1771514698539878700,20.637878662109376,11.809950828552246,-0.019950000569224358,0.286050021648407
1771514698560278800,20.65827880859375,13.47195053100586,-0.30000001192092896,0.30300000309944153
1771514698580681700,20.678681640625,12.604950904846191,-0.5850000381469727,0.05205000191926956
1771514698601087200,20.699087158203124,10.644000053405762,-0.6619500517845154,-0.6649500131607056
1771514698621492500,20.719492431640624,8.496000289916992,-0.8389500379562378,-1.4989501237869263
1771514698641899000,20.73989892578125,7.699050426483154,-0.3430500030517578,-1.450950026512146
1771514698662308400,20.760308349609375,10.005000114440918,-0.09195000678300858,-1.0009500980377197
1771514698682718200,20.78071826171875,12.550050735473633,-0.527999997138977,-0.9960000514984131
1771514698703124700,20.801124755859377,12.957000732421875,-0.6949500441551208,-0.47895002365112305
1771514698723532000,20.821531982421874,11.37405014038086,-0.41505002975463867,-0.40905001759529114
1771514698743940600,20.841940673828127,9.565950393676758,-0.4320000112056732,-0.9499500393867493
1771514698764344800,20.8623447265625,8.295000076293945,-0.19200000166893005,-0.9480000734329224
1771514698784751600,20.882751708984376,8.860050201416016,-0.2670000195503235,-0.6250500082969666
1771514698805156400,20.90315625,9.844050407409668,-0.6570000052452087,-0.37800002098083496
1771514698825560000,20.92356005859375,10.771050453186035,-0.6709500551223755,0.29805001616477966
1771514698845965000,20.943965087890625,12.094950675964355,-0.6640500426292419,0.6840000152587891
1771514698866366000,20.964365966796876,11.695050239562988,-1.144950032234192,0.15495000779628754
1771514698886766000,20.98476611328125,8.992050170898438,-1.1880000829696655,-0.42600002884864807
1771514698907168800,21.005168701171876,8.185050010681152,-0.48705002665519714,-0.36900001764297485
1771514698927571200,21.0255712890625,11.094000816345215,0.1080000028014183,-0.3949500322341919
1771514698947967200,21.04596728515625,12.787050247192383,-0.3340500295162201,-0.8089500665664673
1771514698968360700,21.066360595703124,11.467950820922852,-0.283050000667572,-0.48795002698898315
1771514698988757800,21.0867578125,10.396950721740723,0.09600000083446503,-0.3450000286102295
1771514699009158700,21.10715869140625,9.802950859069824,0.1579500138759613,-1.0200001001358032
1771514699029559000,21.12755908203125,7.840050220489502,0.10305000841617584,-1.1320500373840332
1771514699049958100,21.147958251953124,7.450050354003906,0.5820000171661377,-0.6919500231742859
1771514699070357200,21.168357177734375,10.420950889587402,1.3440001010894775,-0.05700000375509262
1771514699090755000,21.188755126953126,14.677950859069824,1.4590500593185425,-0.04800000041723251
1771514699111153700,21.209153564453125,15.11400032043457,0.8340000510215759,-0.04800000041723251
1771514699131552500,21.229552490234376,13.303950309753418,-0.18000000715255737,-0.49605002999305725
1771514699151947500,21.249947509765626,8.671050071716309,-1.2769500017166138,-1.5420000553131104
1771514699172343800,21.27034375,5.010000228881836,-1.0930500030517578,-1.3980001211166382
1771514699192742400,21.290742431640624,4.7470502853393555,-0.8149500489234924,-1.2160500288009644
1771514699213141800,21.311141845703126,6.886950492858887,-0.08700000494718552,-0.5410500168800354
1771514699233540400,21.331540283203125,10.381050109863281,0.7570500373840332,0.19995000958442688
1771514699253938700,21.351938720703124,13.114950180053711,1.1160000562667847,0.39705002307891846
1771514699274339300,21.37233935546875,14.65005111694336,1.0399500131607056,0.27900001406669617
1771514699294739700,21.39273974609375,11.797950744628906,0.7450500130653381,-0.45705002546310425
1771514699315140000,21.41314013671875,8.296950340270996,0.9799500703811646,-0.7920000553131104
1771514699335540000,21.4335400390625,6.6409502029418945,1.3480501174926758,-1.6380001306533813
1771514699355939600,21.453939697265625,9.142950057983398,2.662950038909912,-1.3240500688552856
1771514699376339200,21.474339111328124,16.621950149536133,3.2470500469207764,-1.152000069618225
1771514699396737000,21.494737060546875,20.83905029296875,1.01295006275177,-1.2310500144958496
1771514699417134600,21.515134521484374,14.082000732421875,-0.8700000643730164,-1.068000078201294
1771514699437534200,21.5355341796875,6.613950252532959,-1.0780500173568726,-0.028950002044439316
1771514699457935000,21.55593505859375,4.368000030517578,-1.606950044631958,-0.4429500102996826
1771514699478333400,21.57633349609375,4.588950157165527,-1.4590500593185425,-0.7060500383377075
1771514699498732300,21.596732177734374,4.431000232696533,-0.7860000133514404,-0.25095000863075256
1771514699519132000,21.6171318359375,4.62000036239624,-0.6330000162124634,0.2670000195503235
1771514699539530800,21.63753076171875,5.5320000648498535,-0.6640500426292419,0.21000000834465027
1771514699559930600,21.6579306640625,9.055950164794922,0.34995001554489136,0.2460000067949295
1771514699580327700,21.67832763671875,16.393051147460938,2.0910000801086426,0.9070500135421753
1771514699600727600,21.6987275390625,20.66400146484375,0.1870500147342682,0.46095001697540283
1771514699621131000,21.719131103515625,15.310050964355469,0.1680000126361847,0.7630500197410583
1771514699641534500,21.739534423828125,10.495050430297852,1.2550500631332397,0.032999999821186066
1771514699661940000,21.75993994140625,10.7160005569458,1.9609501361846924,-1.5589500665664673
1771514699682348300,21.780348388671875,11.161050796508789,2.40405011177063,-1.798050045967102
1771514699702762000,21.800761962890626,11.226000785827637,1.2220500707626343,-1.7910001277923584
1771514699723175700,21.82117578125,10.312950134277344,0.30195000767707825,-1.3890000581741333
1771514699743587000,21.841587158203126,8.515049934387207,0.024000000208616257,-0.7369500398635864
1771514699763997000,21.861996826171875,6.97605037689209,-0.17295001447200775,-0.6180000305175781
1771514699784405200,21.8824052734375,6.712050437927246,0.28095000982284546,-0.598050057888031
1771514699804812000,21.90281201171875,8.218050003051758,1.0990500450134277,-0.5190000534057617
1771514699825214200,21.923214111328125,11.488950729370117,1.4269500970840454,-0.21300001442432404
1771514699845613800,21.94361376953125,13.879050254821777,0.7210500240325928,0.1789500117301941
1771514699866013200,21.96401318359375,11.848050117492676,0.00795000046491623,0.21705001592636108
1771514699886412800,21.984412841796875,8.604000091552734,0.019950000569224358,-0.09795000404119492
1771514699906814000,22.00481396484375,7.312950134277344,0.16095000505447388,-0.49800002574920654
1771514699927214600,22.025214599609374,7.941000461578369,0.2689500153064728,-0.6060000061988831
1771514699947615700,22.04561572265625,9.946950912475586,0.36000001430511475,-0.2850000262260437
1771514699968019700,22.066019775390625,12.13800048828125,0.5779500007629395,0.10200000554323196
1771514699988423000,22.0864228515625,13.360950469970703,0.9820500612258911,0.4440000355243683
1771514700008826000,22.106826171875,12.571050643920898,1.2139500379562378,0.3460500240325928
1771514700029232600,22.127232666015626,10.918950080871582,1.7890501022338867,0.4129500091075897
1771514700049639400,22.147639404296875,10.651050567626953,1.7320500612258911,0.17400000989437103
1771514700070044200,22.168044189453123,9.589950561523438,1.111050009727478,-0.4740000367164612
1771514700090445800,22.18844580078125,9.295950889587402,0.46995002031326294,-0.6580500602722168
1771514700110840600,22.208840576171873,9.565950393676758,-0.208950012922287,-0.8239500522613525
1771514700131234000,22.229234130859375,9.364950180053711,-0.46995002031326294,-0.7830000519752502
1771514700151628800,22.24962890625,9.925950050354004,-0.3769500255584717,-0.7159500122070312
1771514700172023300,22.270023193359375,10.749000549316406,-0.7260000109672546,-0.7660500407218933
1771514700192422000,22.290421875,10.504950523376465,-0.6040500402450562,-0.3139500021934509
1771514700212825000,22.3108251953125,9.559050559997559,-0.6499500274658203,-0.28995001316070557
1771514700233227300,22.331227294921874,8.499000549316406,-0.07304999977350235,-0.2850000262260437
1771514700253628400,22.35162841796875,8.434050559997559,0.32100000977516174,-0.14400000870227814
1771514700274030000,22.372030029296877,10.579050064086914,1.3030500411987305,0.40605002641677856
1771514700294431000,22.392430908203124,15.361050605773926,1.6170001029968262,1.258950114250183
1771514700314833000,22.4128330078125,16.33500099182129,0.8239500522613525,-0.13199999928474426
1771514700335236900,22.43323681640625,13.369050979614258,1.2720000743865967,-0.12405000627040863
1771514700355644200,22.45364404296875,10.279950141906738,1.0950000286102295,-0.8280000686645508
1771514700376053200,22.47405322265625,7.857000350952148,1.1860500574111938,-1.5799500942230225
1771514700396460800,22.494460693359375,6.283950328826904,1.2360000610351562,-1.908000111579895
1771514700416865800,22.51486572265625,6.5809502601623535,1.3270500898361206,-1.8480000495910645
1771514700437268500,22.5352685546875,8.443950653076172,1.7290500402450562,-1.221000075340271
1771514700457675300,22.55567529296875,10.96500015258789,1.894050121307373,-0.20295001566410065
1771514700478081800,22.576081787109374,12.643050193786621,1.0060499906539917,0.4249500334262848
1771514700498486000,22.596486083984374,12.265050888061523,1.015950083732605,1.0330500602722168
1771514700518890500,22.616890380859374,12.367950439453125,1.2619500160217285,0.8400000333786011
1771514700539290600,22.63729052734375,11.104050636291504,0.5920500159263611,-0.1789500117301941
1771514700559687400,22.6576875,7.929000377655029,-0.17805001139640808,-0.40005001425743103
1771514700580087000,22.678087158203127,5.769000053405762,-0.8050500154495239,-0.2460000067949295
1771514700600491000,22.698490966796875,5.620950222015381,-1.0950000286102295,-0.40005001425743103
1771514700620892400,22.718892333984375,7.468950271606445,-0.973050057888031,-0.1270500123500824
1771514700641293800,22.7392939453125,10.843050956726074,-0.9199500679969788,0.7720500230789185
1771514700661698000,22.759697998046875,13.869000434875488,-1.2910500764846802,1.804050087928772
1771514700682101500,22.7801015625,14.245050430297852,-1.0830000638961792,2.170950174331665
1771514700702507500,22.800507568359375,11.581950187683105,-0.5040000081062317,1.5150001049041748
1771514700722915000,22.8209150390625,8.515049934387207,0.07500000298023224,0.5089499950408936
1771514700743322600,22.841322509765625,7.04295015335083,0.9649500250816345,0.16395001113414764
1771514700763729000,22.86172900390625,9.601950645446777,2.407050132751465,0.5929500460624695
1771514700784132900,22.8821328125,16.12005043029785,2.6389501094818115,0.5380499958992004
1771514700804537600,22.90253759765625,16.831050872802734,1.4730000495910645,-0.5410500168800354
1771514700824943000,22.922943115234375,12.17595100402832,1.0440000295639038,-0.21300001442432404
1771514700845349400,22.943349365234376,8.04104995727539,0.5890500545501709,-0.7969500422477722
1771514700865754600,22.963754638671876,6.154950141906738,0.6640500426292419,-1.350000023841858
1771514700886157000,22.984156982421876,6.825000286102295,0.41700002551078796,-1.2859500646591187
1771514700906559500,23.0045595703125,8.047950744628906,-0.29805001616477966,-0.5029500126838684
1771514700926965200,23.02496533203125,8.920050621032715,-0.8460000157356262,0.3340500295162201
1771514700947370500,23.04537060546875,9.418050765991211,-0.8560500144958496,1.0980000495910645
1771514700967773000,23.06577294921875,10.16295051574707,-0.3739500045776367,1.078950047492981
1771514700988176600,23.0861767578125,11.946000099182129,0.21105000376701355,1.024049997329712
1771514701008580600,23.10658056640625,13.339950561523438,-0.15195000171661377,0.4230000078678131
1771514701028984600,23.126984619140625,11.398050308227539,-0.5350500345230103,-0.024000000208616257
1771514701049391600,23.1473916015625,8.57295036315918,-0.11805000901222229,-0.2749500274658203
1771514701069797600,23.167797607421875,8.79104995727539,1.0489500761032104,-0.31095001101493835
1771514701090203400,23.188203369140624,11.677950859069824,1.6500000953674316,-0.6850500106811523
1771514701110611500,23.208611572265625,13.491000175476074,1.3150500059127808,-0.7519500255584717
1771514701131017500,23.229017578125,11.773950576782227,0.44805002212524414,-0.8280000686645508
1771514701151421200,23.249421142578125,8.63700008392334,0.2779500186443329,-0.6270000338554382
1771514701171824400,23.269824462890625,6.76800012588501,0.5850000381469727,-1.0530000925064087
1771514701192232000,23.29023193359375,6.838950157165527,1.055999994277954,-1.546950101852417
1771514701212638200,23.31063818359375,8.428950309753418,1.7509500980377197,-1.2430500984191895
1771514701233038800,23.331038818359374,11.194950103759766,2.0329501628875732,-0.5839500427246094
1771514701253439200,23.351439208984374,14.671051025390625,1.7100000381469727,-0.27300000190734863
1771514701273843200,23.37184326171875,14.28795051574707,1.2499500513076782,-0.2989500164985657
1771514701294248000,23.392248046875,10.59795093536377,0.859950065612793,-0.843000054359436
1771514701314649000,23.412649169921874,7.531050205230713,0.6760500073432922,-1.1989500522613525
1771514701335049500,23.433049560546873,7.2300004959106445,0.028950002044439316,-1.1350500583648682
1771514701355451000,23.453450927734377,8.806950569152832,-0.8130000233650208,-0.5940000414848328
1771514701375851500,23.4738515625,10.120050430297852,-1.758000135421753,0.17595000565052032
1771514701396253400,23.49425341796875,9.994950294494629,-2.328000068664551,1.3300501108169556
1771514701416656400,23.514656494140624,9.496950149536133,-2.407050132751465,1.9150501489639282
1771514701437059800,23.535059814453124,9.10200023651123,-1.9330500364303589,1.812000036239624
1771514701457462300,23.555462158203124,8.535000801086426,-1.26705002784729,1.2030000686645508
1771514701477862400,23.5758623046875,8.187000274658203,-0.753000020980835,1.7040001153945923
1771514701498261000,23.596260986328126,10.243950843811035,-0.33900001645088196,2.3170502185821533
1771514701518662700,23.61666259765625,14.104050636291504,0.5149500370025635,2.1760501861572266
1771514701539068000,23.63706787109375,15.933000564575195,1.3750500679016113,1.8259501457214355
1771514701559474700,23.657474609375,15.98805046081543,1.8300000429153442,0.8370000123977661
1771514701579879200,23.677879150390623,14.55405044555664,1.6330500841140747,-0.9000000357627869
1771514701600275700,23.698275634765626,11.259000778198242,1.6120500564575195,-2.514000177383423
1771514701620670700,23.718670654296876,7.870950222015381,1.360050082206726,-3.3259501457214355
1771514701641071900,23.73907177734375,6.139950275421143,0.8719500303268433,-3.1840500831604004
1771514701661476600,23.7594765625,6.082950115203857,0.3520500063896179,-2.253000020980835
1771514701681881600,23.779881591796876,6.721950531005859,0,-1.4800500869750977
1771514701702285800,23.800285888671876,7.7440505027771,0.06795000284910202,-0.5290500521659851
1771514701722692400,23.8206923828125,9.724050521850586,0.22800001502037048,0.021000001579523087
1771514701743101700,23.841101806640626,12.306000709533691,-0.15900000929832458,0.3439500033855438
1771514701763509500,23.861509521484376,12.5110502243042,-0.8719500303268433,0.5929500460624695
1771514701783917000,23.8819169921875,10.060050010681152,-0.8340000510215759,0.6910500526428223
1771514701804321000,23.902321044921877,8.51294994354248,-0.364950031042099,0.3150000274181366
1771514701824722400,23.922722412109376,9.065999984741211,0.3330000042915344,0.15000000596046448
1771514701845126700,23.943126708984376,11.154000282287598,0.7470000386238098,0.05205000191926956
1771514701865537800,23.963537841796875,12.397050857543945,0.2970000207424164,-0.031050002202391624
1771514701885952800,23.983952880859373,11.460000991821289,-0.1660500019788742,0.1380000114440918
1771514701906362400,24.0043623046875,10.371000289916992,-0.027000000700354576,0.1279500126838684
1771514701926767600,24.024767578125,10.969950675964355,0.37905001640319824,-0.44505003094673157
1771514701947172900,24.0451728515625,12.43695068359375,0.4339500069618225,-0.7609500288963318
1771514701967579600,24.06557958984375,12.456000328063965,-0.12495000660419464,-1.3290001153945923
1771514701987989000,24.085989013671874,10.438050270080566,-0.35295000672340393,-1.2019500732421875
1771514702008401200,24.106401123046876,8.446050643920898,-0.23100000619888306,-0.9120000600814819
1771514702028810200,24.126810302734373,8.07194995880127,-0.025050001218914986,-1.0200001001358032
1771514702049215200,24.14721533203125,8.134950637817383,0.18495000898838043,-0.8260500431060791
1771514702069618400,24.167618408203126,8.898000717163086,0.31905001401901245,-0.40905001759529114
1771514702090019800,24.188019775390625,10.653000831604004,0.42705002427101135,0.016050001606345177
1771514702110420000,24.208419921875,11.587050437927246,0.30195000767707825,0.226950004696846
1771514702130819600,24.228819580078124,11.178000450134277,-0.14505000412464142,-0.1270500123500824
1771514702151218400,24.249218505859375,9.64995002746582,-0.19200000166893005,-0.5940000414848328
1771514702171617300,24.2696171875,9.229050636291504,0.12000000476837158,-0.8070000410079956
1771514702192018400,24.290018310546873,9.577950477600098,-0.043950002640485764,-1.3020000457763672
1771514702212420000,24.310420166015625,9.757950782775879,-0.06105000153183937,-1.068000078201294
1771514702232820500,24.330820556640624,11.215950965881348,0.010050000622868538,-0.7450500130653381
1771514702253218300,24.35121826171875,12.95205020904541,0.18000000715255737,-0.6940500140190125
1771514702273614000,24.371614013671874,12.025050163269043,-0.6670500040054321,-1.450950026512146
1771514702294009000,24.392009033203124,9.037050247192383,-0.6040500402450562,-1.4220000505447388
1771514702314405000,24.412405029296874,8.365050315856934,-0.35805001854896545,-1.4440500736236572
1771514702334802700,24.432802734375,9.325050354003906,-0.5680500268936157,-1.3860000371932983
1771514702355203800,24.453203857421876,10.333050727844238,-1.0830000638961792,-0.7590000629425049
1771514702375609000,24.473609130859376,10.788000106811523,-1.6290000677108765,-0.22005000710487366
1771514702396015400,24.494015380859373,10.504950523376465,-1.8060001134872437,-0.15300001204013824
1771514702416420000,24.514420166015626,9.934950828552246,-1.927950143814087,-0.3349500298500061
1771514702436824600,24.534824462890626,8.922000885009766,-1.8610501289367676,-0.46695002913475037
1771514702457228800,24.555228759765626,9.10200023651123,-1.549950122833252,-0.23205001652240753
1771514702477628200,24.575628173828125,10.531050682067871,-1.1809500455856323,0.034950003027915955
1771514702498026500,24.596026611328124,12.229050636291504,-0.8869500160217285,0.23595000803470612
1771514702518426000,24.616426025390624,12.616950988769531,-1.0350000858306885,-0.08400000631809235
1771514702538826200,24.636826171875,10.7920503616333,-0.9040500521659851,-0.19395001232624054
1771514702559232500,24.657232421875,9.717000007629395,-0.5179499983787537,-0.5119500160217285
1771514702579639600,24.6776396484375,10.45995044708252,-0.11595000326633453,-0.6370500326156616
1771514702600043800,24.698043701171876,11.202000617980957,-0.5989500284194946,-1.3140000104904175
1771514702620447700,24.71844775390625,10.006950378417969,-0.7909500598907471,-0.700950026512146
1771514702640854000,24.73885400390625,9.832050323486328,-0.8800500631332397,-0.3520500063896179
1771514702661262000,24.759261962890626,10.924050331115723,-0.5520000457763672,-0.38805001974105835
1771514702681667600,24.77966748046875,10.924050331115723,-0.7909500598907471,-0.5190000534057617
1771514702702070800,24.80007080078125,9.898950576782227,-0.9510000348091125,-0.547950029373169
1771514702722469600,24.8204697265625,9.38895034790039,-0.9660000205039978,-0.4210500121116638
1771514702742866700,24.84086669921875,9.67905044555664,-0.9370500445365906,-0.49800002574920654
1771514702763267300,24.861267333984376,9.375,-0.8959500193595886,-0.5629500150680542
1771514702783669800,24.881669677734376,9.193050384521484,-0.5539500117301941,-0.5460000038146973
1771514702804071400,24.902071533203124,9.829950332641602,-0.09405000507831573,-0.5700000524520874
1771514702824474000,24.92247412109375,10.993050575256348,-0.06105000153183937,-0.5940000414848328
1771514702844880400,24.94288037109375,10.579050064086914,-0.7890000343322754,-0.46695002913475037
1771514702865292500,24.96329248046875,10.114950180053711,-0.8629500269889832,-0.20805001258850098
1771514702885702700,24.98370263671875,10.483050346374512,-0.7500000596046448,-0.2560500204563141
1771514702906105300,25.004105224609376,10.849950790405273,-0.7930500507354736,-0.32805001735687256
1771514702926504000,25.02450390625,10.80405044555664,-0.9160500168800354,-0.3540000021457672
1771514702946904600,25.044904541015626,10.882950782775879,-1.0230000019073486,-0.7540500164031982
1771514702967308500,25.06530859375,11.563050270080566,-0.8479500412940979,-0.9100500345230103
1771514702987714600,25.085714599609375,11.14905071258545,-0.8509500622749329,-0.8640000224113464
1771514703008121300,25.106121337890624,9.729000091552734,-0.6550500392913818,-0.7590000629425049
1771514703028525300,25.126525390625,8.059950828552246,-0.23805001378059387,-0.687000036239624
1771514703048928000,25.146927978515624,8.068050384521484,0.3169500231742859,-0.8160000443458557
1771514703069328600,25.16732861328125,9.862950325012207,0.7309500575065613,-1.0939500331878662
1771514703089730800,25.187730712890627,11.25195026397705,0.7090500593185425,-0.814050018787384
1771514703110136300,25.20813623046875,11.559000968933105,0.20205001533031464,-0.895050048828125
1771514703130541000,25.228541015625,10.692000389099121,0.06000000238418579,-0.7590000629425049
1771514703150945500,25.248945556640624,9.708000183105469,-0.17295001447200775,-1.3189500570297241
1771514703171349000,25.269348876953124,9.595050811767578,-0.24495001137256622,-1.2880500555038452
1771514703191752200,25.289752197265624,9.918000221252441,-0.6690000295639038,-1.1730000972747803
1771514703212159700,25.31015966796875,10.785000801086426,-0.8989500403404236,-0.8329500555992126
1771514703232567600,25.330567626953126,12.319951057434082,-0.8959500193595886,-0.42795002460479736
1771514703252976400,25.350976318359375,12.904050827026367,-1.1809500455856323,-0.6390000581741333
1771514703273385700,25.3713857421875,10.780050277709961,-1.0260000228881836,-0.8089500665664673
1771514703293790200,25.391790283203125,8.956050872802734,-0.5470499992370605,-0.7450500130653381
1771514703314193000,25.41219287109375,8.956050872802734,-0.4030500054359436,-1.0800000429153442
1771514703334597400,25.432597412109374,9.079950332641602,-0.013050000183284283,-0.703950047492981
1771514703355006200,25.453006103515627,10.641000747680664,0.22605000436306,-0.42600002884864807
1771514703375410400,25.473410400390627,11.271000862121582,0.25905001163482666,-0.2370000183582306
1771514703395810600,25.493810546875,10.669950485229492,0.37605002522468567,-0.20295001566410065
1771514703416211500,25.51421142578125,9.796050071716309,0.36705002188682556,-0.4930500090122223
1771514703436611800,25.53461181640625,8.556000709533691,0.26100000739097595,-0.534000039100647
1771514703457013000,25.555012939453125,9.514050483703613,0.30705001950263977,-0.3060000240802765
1771514703477411600,25.57541162109375,11.87505054473877,-0.15405000746250153,-0.45000001788139343
1771514703497810400,25.595810546875,11.53695011138916,-0.5879999995231628,-0.07905000448226929
1771514703518210000,25.6162099609375,10.771050453186035,-0.31905001401901245,0.33900001645088196
1771514703538610200,25.636610107421873,12.42495059967041,-0.015000000596046448,0.3079500198364258
1771514703559014100,25.65701416015625,12.157050132751465,-0.7339500188827515,-0.6010500192642212
1771514703579416300,25.677416259765625,9.258000373840332,-0.6690000295639038,-0.30900001525878906
1771514703599817000,25.69781689453125,8.239950180053711,-0.49695003032684326,-0.2989500164985657
1771514703620219100,25.71821923828125,8.142000198364258,-0.45600003004074097,-0.5820000171661377
1771514703640621800,25.738621826171876,8.12505054473877,-0.13005000352859497,-0.35895001888275146
1771514703661020700,25.759020751953123,8.551050186157227,0.19005000591278076,-0.14400000870227814
1771514703681418000,25.77941796875,10.291950225830078,0.7669500112533569,0.24300001561641693
1771514703701820000,25.79981982421875,12.805950164794922,1.4610000848770142,0.7099500298500061
1771514703722223400,25.820223388671874,14.65005111694336,0.9079500436782837,0.4729500114917755
1771514703742625300,25.840625244140625,12.816000938415527,0.028950002044439316,-0.17505000531673431
1771514703763028500,25.861028564453125,10.438050270080566,-0.17295001447200775,-0.2370000183582306
1771514703783433000,25.881432861328125,10.771050453186035,-0.453000009059906,0.24300001561641693
1771514703803835600,25.901835693359374,12.583050727844238,-1.7700001001358032,0.010950000956654549
1771514703824234200,25.922234130859376,11.083950996398926,-2.6230502128601074,-1.125
1771514703844630800,25.942630859375,7.878000259399414,-2.0500500202178955,-0.43995001912117004
1771514703865031000,25.963031005859374,7.914000511169434,-1.1569499969482422,-0.1270500123500824
1771514703885431300,25.983431396484374,9.07800006866455,-0.42000001668930054,-0.7399500608444214
1771514703905828000,26.003828125,8.179950714111328,0.7590000629425049,-0.5389500260353088
1771514703926225200,26.02422509765625,7.809000492095947,1.1160000562667847,-0.7879500389099121
1771514703946627800,26.0446279296875,7.668000221252441,1.281000018119812,-1.1230500936508179
1771514703967032600,26.065032470703127,7.267950534820557,1.9519500732421875,-0.9910500645637512
